Folder: EchemAnalysis_MATLAB/Test_Data_Files

File: 20250424_C_CHI105_2mmAu_E000_PBSarg_CV50.DTA
EXPLAIN
TAG	CV
TITLE	LABEL	Cyclic Voltammetry	Test &Identifier
DATE	LABEL	4/24/2025	Date
TIME	LABEL	16:49:23	Time
NOTES	NOTES	3	&Notes...

PSTAT	PSTAT	IFC1010-32247	Potentiostat
VINIT	POTEN	0.00000E+000	T	Initial &E (V)
VLIMIT1	POTEN	-6.00000E-001	F	Scan Limit &1 (V)
VLIMIT2	POTEN	8.00000E-001	F	Scan Limit &2 (V)
VFINAL	POTEN	0.00000E+000	T	Final &E (V)
SCANRATE	QUANT	4.99999E+001	&Scan Rate (mV/s)
STEPSIZE	QUANT	1.00000E+001	St&ep Size (mV)
CYCLES	IQUANT	3	C&ycles (#)
IMODE	SELECTOR	1	I/E Range &Mode
IRANGE	QUANT	1.00000E-002	&Max Current (mA)
AREA	QUANT	1.00000E+000	Electrode &Area (cm^2)
ELECTRODETYPE	SELECTOR	0	Electrode Type
STRIPPING	TOGGLE	F	Used for Stripping
CONDIT	TWOPARAM	F	1.50000E+001	0.00000E+000	Conditionin&g	Time(s)	E(V)
DELAY	TWOPARAM	T	1.50000E+001	0.00000E+000	Init. De&lay	Time(s)	Stab.(mV/s)
EQDELAY	QUANT	0.00000E+000	Equil. &Time (s)
IRCOMP	SELECTOR	0	IRCom&p
PFCOR	QUANT	5.00000E+001	PF Corr. (ohm)
SAMPLINGMODE	SELECTOR	2	Sampling &Mode
OCVCURVE	TABLE	58
	Pt	T	Vf	Vm	Ach	Over	Temp
	#	s	V vs. Ref.	V	V	bits	deg C
	0	0.258333	3.41411E-001	3.41411E-001	0.00000E+000	...........	1368.00
	1	0.516667	3.41406E-001	3.41153E-001	0.00000E+000	...........	1368.00
	2	0.775	3.41375E-001	3.40883E-001	0.00000E+000	...........	1368.00
	3	1.03333	3.41287E-001	3.40619E-001	0.00000E+000	...........	1368.00
	4	1.29167	3.41124E-001	3.40364E-001	0.00000E+000	...........	1368.00
	5	1.55	3.40903E-001	3.40086E-001	0.00000E+000	...........	1368.00
	6	1.80833	3.40649E-001	3.39830E-001	0.00000E+000	...........	1368.00
	7	2.06667	3.40383E-001	3.39555E-001	0.00000E+000	...........	1368.00
	8	2.325	3.40115E-001	3.39318E-001	0.00000E+000	...........	1368.00
	9	2.58333	3.39850E-001	3.39060E-001	0.00000E+000	...........	1368.00
	10	2.84167	3.39589E-001	3.38782E-001	0.00000E+000	...........	1368.00
	11	3.1	3.39331E-001	3.38547E-001	0.00000E+000	...........	1368.00
	12	3.35833	3.39073E-001	3.38285E-001	0.00000E+000	...........	1368.00
	13	3.61667	3.38816E-001	3.38016E-001	0.00000E+000	...........	1368.00
	14	3.875	3.38559E-001	3.37757E-001	0.00000E+000	...........	1368.00
	15	4.13333	3.38300E-001	3.37503E-001	0.00000E+000	...........	1368.00
	16	4.39167	3.38040E-001	3.37259E-001	0.00000E+000	...........	1368.00
	17	4.65	3.37782E-001	3.36974E-001	0.00000E+000	...........	1368.00
	18	4.90833	3.37524E-001	3.36728E-001	0.00000E+000	...........	1367.95
	19	5.16667	3.37266E-001	3.36471E-001	0.00000E+000	...........	1367.83
	20	5.425	3.37007E-001	3.36235E-001	0.00000E+000	...........	1367.83
	21	5.68333	3.36750E-001	3.35976E-001	0.00000E+000	...........	1367.83
	22	5.94167	3.36497E-001	3.35703E-001	0.00000E+000	...........	1367.91
	23	6.2	3.36244E-001	3.35443E-001	0.00000E+000	...........	1367.91
	24	6.45833	3.35987E-001	3.35177E-001	0.00000E+000	...........	1367.91
	25	6.71667	3.35727E-001	3.34937E-001	0.00000E+000	...........	1367.91
	26	6.975	3.35466E-001	3.34688E-001	0.00000E+000	...........	1367.91
	27	7.23333	3.35208E-001	3.34426E-001	0.00000E+000	...........	1367.91
	28	7.49167	3.34954E-001	3.34164E-001	0.00000E+000	...........	1367.91
	29	7.75	3.34700E-001	3.33908E-001	0.00000E+000	...........	1367.91
	30	8.00833	3.34444E-001	3.33638E-001	0.00000E+000	...........	1368.00
	31	8.26667	3.34186E-001	3.33400E-001	0.00000E+000	...........	1368.00
	32	8.525	3.33926E-001	3.33131E-001	0.00000E+000	...........	1368.00
	33	8.78333	3.33668E-001	3.32856E-001	0.00000E+000	...........	1368.00
	34	9.04167	3.33409E-001	3.32601E-001	0.00000E+000	...........	1368.00
	35	9.3	3.33147E-001	3.32343E-001	0.00000E+000	...........	1368.00
	36	9.5583	3.32884E-001	3.32060E-001	0.00000E+000	...........	1368.00
	37	9.8167	3.32620E-001	3.31802E-001	0.00000E+000	...........	1368.00
	38	10.075	3.32355E-001	3.31533E-001	0.00000E+000	...........	1368.00
	39	10.3333	3.32088E-001	3.31273E-001	0.00000E+000	...........	1368.00
	40	10.5917	3.31822E-001	3.31037E-001	0.00000E+000	...........	1368.00
	41	10.85	3.31560E-001	3.30775E-001	0.00000E+000	...........	1368.00
	42	11.1083	3.31302E-001	3.30513E-001	0.00000E+000	...........	1368.00
	43	11.3667	3.31048E-001	3.30259E-001	0.00000E+000	...........	1368.00
	44	11.625	3.30792E-001	3.29980E-001	0.00000E+000	...........	1368.00
	45	11.8833	3.30533E-001	3.29740E-001	0.00000E+000	...........	1368.00
	46	12.1417	3.30273E-001	3.29481E-001	0.00000E+000	...........	1368.00
	47	12.4	3.30014E-001	3.29229E-001	0.00000E+000	...........	1368.00
	48	12.6583	3.29756E-001	3.28963E-001	0.00000E+000	...........	1368.00
	49	12.9167	3.29500E-001	3.28712E-001	0.00000E+000	...........	1367.80
	50	13.175	3.29244E-001	3.28464E-001	0.00000E+000	...........	1367.57
	51	13.4333	3.28988E-001	3.28193E-001	0.00000E+000	...........	1367.57
	52	13.6917	3.28732E-001	3.27941E-001	0.00000E+000	...........	1367.57
	53	13.95	3.28476E-001	3.27684E-001	0.00000E+000	...........	1367.83
	54	14.2083	3.28218E-001	3.27430E-001	0.00000E+000	...........	1367.83
	55	14.4667	3.27961E-001	3.27165E-001	0.00000E+000	...........	1367.83
	56	14.725	3.27704E-001	3.26913E-001	0.00000E+000	...........	1367.83
	57	14.9833	3.27446E-001	3.26654E-001	0.00000E+000	...........	1367.91
EOC	QUANT	0.3274464	Open Circuit (V)
PSTATMODEL	IQUANT	64	Pstat Model
PSTATSECTION	LABEL	IFC1010-32247	Pstat Section
PSTATSERIALNO	LABEL	32247	Pstat Serial Number
CTRLMODE	IQUANT	1	Control Mode
ELECTROMETER	IQUANT	0	RE=0 or CS=1
IESTAB	IQUANT	2	I/E Stability
CASPEED	IQUANT	4	Control Amp Speed
CONVENTION	IQUANT	1	Current Convention
ICHRANGE	IQUANT	2	Ich Range
ICHRANGEMODE	TOGGLE	F	Ich Auto Range
ICHOFFSETENABLE	TOGGLE	F	Ich Offset Enable
ICHOFFSET	QUANT	0	Ich Offset (V)
ICHFILTER	IQUANT	3	Ich Filter
VCHRANGE	IQUANT	2	Vch Range
VCHRANGEMODE	TOGGLE	F	Vch Auto Range
VCHOFFSETENABLE	TOGGLE	F	Vch Offset Enable
VCHOFFSET	QUANT	0	Vch Offset (V)
VCHFILTER	IQUANT	3	Vch Filter
IERANGELOWERLIMIT	IQUANT	4	I/E Range Lower Limit
IERANGEMODE	TOGGLE	F	I/E AutoRange
IERANGE	IQUANT	8	I/E Range
ACHSELECT	IQUANT	0	Ach Select
ACHRANGE	IQUANT	2	Ach Range
ACHOFFSETENABLE	TOGGLE	F	Ach Offset Enable
ACHOFFSET	QUANT	0	Ach Offset (V)
ACHFILTER	IQUANT	1	Ach Filter
SENSECABLEID	IQUANT	14	Sense Cable ID
PWRCABLEID	IQUANT	14	Power Cable ID
DCCALDATE	LABEL	11/18/2024	DC Calibration Date
ACCALDATE	LABEL	4/18/2022	AC Calibration Date
FRAMEWORKVERSION	LABEL	7.10.3	Framework Version
INSTRUMENTVERSION	LABEL	4.91	Instrument Version
COMMVERSION	LABEL	3.10	Communications Version
CPUPLDVERSION	LABEL	2.22	CPU PLD Version
CTRLPLDVERSION	LABEL	0.00	CTRL PLD Version
PSTATPLDVERSION	LABEL	0.00	PSTAT PLD Version
CURVE1	TABLE
	Pt	T	Vf	Im	Vu	Sig	Ach	IERange	Over	Temp
	#	s	V vs. Ref.	A	V	V	V	#	bits	deg C
	0	0.2	3.27498E-001	5.52008E-009	0.00000E+000	3.27465E-001	0.00000E+000	8	...........	1368.00
	3	0.8	2.97491E-001	-4.17445E-007	0.00000E+000	2.97423E-001	0.00000E+000	8	...........	1368.00
	6	1.4	2.67470E-001	-4.40019E-007	0.00000E+000	2.67431E-001	0.00000E+000	8	...........	1367.91
	9	2	2.37493E-001	-4.55104E-007	0.00000E+000	2.37438E-001	0.00000E+000	8	...........	1367.69
	12	2.6	2.07495E-001	-4.63410E-007	0.00000E+000	2.07446E-001	0.00000E+000	8	...........	1367.40
	15	3.2	1.77493E-001	-4.41453E-007	0.00000E+000	1.77454E-001	0.00000E+000	8	...........	1367.40
	18	3.8	1.47509E-001	-4.15419E-007	0.00000E+000	1.47461E-001	0.00000E+000	8	...........	1367.40
[...]
	804	161	6.90100E-001	-3.32255E-007	0.00000E+000	6.90022E-001	0.00000E+000	8	...........	1367.31
	805	161.2	6.80120E-001	-3.41492E-007	0.00000E+000	6.80025E-001	0.00000E+000	8	...........	1367.31
	806	161.4	6.70076E-001	-3.52268E-007	0.00000E+000	6.69977E-001	0.00000E+000	8	...........	1367.31
	807	161.6	6.60072E-001	-3.60866E-007	0.00000E+000	6.59980E-001	0.00000E+000	8	...........	1367.31
	808	161.8	6.50069E-001	-3.69859E-007	0.00000E+000	6.49983E-001	0.00000E+000	8	...........	1367.31
	809	162	6.40060E-001	-3.77966E-007	0.00000E+000	6.39985E-001	0.00000E+000	8	...........	1367.27
	810	162.2	6.30079E-001	-3.84843E-007	0.00000E+000	6.29988E-001	0.00000E+000	8	...........	1367.22
	811	162.4	6.20077E-001	-3.89745E-007	0.00000E+000	6.19990E-001	0.00000E+000	8	...........	1367.22
	812	162.6	6.10076E-001	-3.94220E-007	0.00000E+000	6.09993E-001	0.00000E+000	8	...........	1367.22
	813	162.8	6.00070E-001	-3.98627E-007	0.00000E+000	5.99995E-001	0.00000E+000	8	...........	1367.22
	814	163	5.90091E-001	-4.03377E-007	0.00000E+000	5.89998E-001	0.00000E+000	8	...........	1367.27
	815	163.2	5.80090E-001	-4.08686E-007	0.00000E+000	5.80001E-001	0.00000E+000	8	...........	1367.31
	816	163.4	5.70089E-001	-4.15010E-007	0.00000E+000	5.70003E-001	0.00000E+000	8	...........	1367.31
	817	163.6	5.60089E-001	-4.21038E-007	0.00000E+000	5.60006E-001	0.00000E+000	8	...........	1367.31
	818	163.8	5.50091E-001	-4.27335E-007	0.00000E+000	5.50008E-001	0.00000E+000	8	...........	1367.31
	819	164	5.40087E-001	-4.32808E-007	0.00000E+000	5.40011E-001	0.00000E+000	8	...........	1367.31
	820	164.2	5.30089E-001	-4.38649E-007	0.00000E+000	5.30013E-001	0.00000E+000	8	...........	1367.31
	821	164.4	5.20091E-001	-4.45657E-007	0.00000E+000	5.20016E-001	0.00000E+000	8	...........	1367.31
	822	164.6	5.10080E-001	-4.50992E-007	0.00000E+000	5.10018E-001	0.00000E+000	8	...........	1367.31
	823	164.8	5.00112E-001	-4.57432E-007	0.00000E+000	5.00021E-001	0.00000E+000	8	...........	1367.31
	824	165	4.90112E-001	-4.65447E-007	0.00000E+000	4.90024E-001	0.00000E+000	8	...........	1367.27
	825	165.2	4.80053E-001	-4.75401E-007	0.00000E+000	4.79976E-001	0.00000E+000	8	...........	1367.22
	826	165.4	4.70044E-001	-4.80865E-007	0.00000E+000	4.69979E-001	0.00000E+000	8	...........	1367.22
	827	165.6	4.60055E-001	-4.89375E-007	0.00000E+000	4.59981E-001	0.00000E+000	8	...........	1367.22
	828	165.8	4.50057E-001	-4.97149E-007	0.00000E+000	4.49984E-001	0.00000E+000	8	...........	1367.22
	829	166	4.40043E-001	-5.04979E-007	0.00000E+000	4.39986E-001	0.00000E+000	8	...........	1367.27
	830	166.2	4.30052E-001	-5.12783E-007	0.00000E+000	4.29989E-001	0.00000E+000	8	...........	1367.31
	831	166.4	4.20058E-001	-5.19692E-007	0.00000E+000	4.19991E-001	0.00000E+000	8	...........	1367.31
	832	166.6	4.10065E-001	-5.25986E-007	0.00000E+000	4.09994E-001	0.00000E+000	8	...........	1367.31
	833	166.8	4.00063E-001	-5.31417E-007	0.00000E+000	3.99997E-001	0.00000E+000	8	...........	1367.31
	834	167	3.90051E-001	-5.36751E-007	0.00000E+000	3.89999E-001	0.00000E+000	8	...........	1367.31
	835	167.2	3.80048E-001	-5.40673E-007	0.00000E+000	3.80002E-001	0.00000E+000	8	...........	1367.31
	836	167.4	3.70050E-001	-5.41485E-007	0.00000E+000	3.70004E-001	0.00000E+000	8	...........	1367.31
	837	167.6	3.60063E-001	-5.38445E-007	0.00000E+000	3.60007E-001	0.00000E+000	8	...........	1367.31
	838	167.8	3.50072E-001	-5.35885E-007	0.00000E+000	3.50009E-001	0.00000E+000	8	...........	1367.31
	839	168	3.40051E-001	-5.34141E-007	0.00000E+000	3.40012E-001	0.00000E+000	8	...........	1367.31
	840	168.2	3.30056E-001	-5.32306E-007	0.00000E+000	3.30014E-001	0.00000E+000	8	...........	1367.31

File: 20250424_D_CHI105_2mmAu_E000_PBSarg_CV100.DTA
EXPLAIN
TAG	CV
TITLE	LABEL	Cyclic Voltammetry	Test &Identifier
DATE	LABEL	4/24/2025	Date
TIME	LABEL	16:56:58	Time
NOTES	NOTES	3	&Notes...

PSTAT	PSTAT	IFC1010-32247	Potentiostat
VINIT	POTEN	0.00000E+000	T	Initial &E (V)
VLIMIT1	POTEN	-6.00000E-001	F	Scan Limit &1 (V)
VLIMIT2	POTEN	8.00000E-001	F	Scan Limit &2 (V)
VFINAL	POTEN	0.00000E+000	T	Final &E (V)
SCANRATE	QUANT	9.99998E+001	&Scan Rate (mV/s)
STEPSIZE	QUANT	1.00000E+001	St&ep Size (mV)
CYCLES	IQUANT	3	C&ycles (#)
IMODE	SELECTOR	1	I/E Range &Mode
IRANGE	QUANT	1.00000E-002	&Max Current (mA)
AREA	QUANT	1.00000E+000	Electrode &Area (cm^2)
ELECTRODETYPE	SELECTOR	0	Electrode Type
STRIPPING	TOGGLE	F	Used for Stripping
CONDIT	TWOPARAM	F	1.50000E+001	0.00000E+000	Conditionin&g	Time(s)	E(V)
DELAY	TWOPARAM	T	1.50000E+001	0.00000E+000	Init. De&lay	Time(s)	Stab.(mV/s)
EQDELAY	QUANT	0.00000E+000	Equil. &Time (s)
IRCOMP	SELECTOR	0	IRCom&p
PFCOR	QUANT	5.00000E+001	PF Corr. (ohm)
SAMPLINGMODE	SELECTOR	2	Sampling &Mode
OCVCURVE	TABLE	58
	Pt	T	Vf	Vm	Ach	Over	Temp
	#	s	V vs. Ref.	V	V	bits	deg C
	0	0.258333	2.49770E-001	2.49770E-001	0.00000E+000	...........	1367.91
	1	0.516667	2.49769E-001	2.49702E-001	0.00000E+000	...........	1367.48
	2	0.775	2.49761E-001	2.49657E-001	0.00000E+000	...........	1367.48
	3	1.03333	2.49741E-001	2.49598E-001	0.00000E+000	...........	1367.48
	4	1.29167	2.49705E-001	2.49537E-001	0.00000E+000	...........	1367.48
	5	1.55	2.49657E-001	2.49485E-001	0.00000E+000	...........	1367.83
	6	1.80833	2.49602E-001	2.49418E-001	0.00000E+000	...........	1367.83
	7	2.06667	2.49545E-001	2.49383E-001	0.00000E+000	...........	1367.83
	8	2.325	2.49488E-001	2.49312E-001	0.00000E+000	...........	1367.83
	9	2.58333	2.49432E-001	2.49273E-001	0.00000E+000	...........	1367.91
	10	2.84167	2.49377E-001	2.49192E-001	0.00000E+000	...........	1367.91
	11	3.1	2.49322E-001	2.49152E-001	0.00000E+000	...........	1367.91
	12	3.35833	2.49266E-001	2.49107E-001	0.00000E+000	...........	1367.91
	13	3.61667	2.49211E-001	2.49054E-001	0.00000E+000	...........	1367.91
	14	3.875	2.49158E-001	2.48991E-001	0.00000E+000	...........	1367.91
	15	4.13333	2.49106E-001	2.48929E-001	0.00000E+000	...........	1367.91
	16	4.39167	2.49052E-001	2.48864E-001	0.00000E+000	...........	1367.91
	17	4.65	2.48994E-001	2.48821E-001	0.00000E+000	...........	1367.91
	18	4.90833	2.48935E-001	2.48765E-001	0.00000E+000	...........	1367.91
	19	5.16667	2.48878E-001	2.48718E-001	0.00000E+000	...........	1367.91
	20	5.425	2.48823E-001	2.48656E-001	0.00000E+000	...........	1367.91
	21	5.68333	2.48770E-001	2.48608E-001	0.00000E+000	...........	1367.91
	22	5.94167	2.48717E-001	2.48537E-001	0.00000E+000	...........	1367.91
	23	6.2	2.48662E-001	2.48488E-001	0.00000E+000	...........	1367.91
	24	6.45833	2.48606E-001	2.48433E-001	0.00000E+000	...........	1367.91
	25	6.71667	2.48549E-001	2.48373E-001	0.00000E+000	...........	1367.91
	26	6.975	2.48492E-001	2.48322E-001	0.00000E+000	...........	1367.91
	27	7.23333	2.48436E-001	2.48281E-001	0.00000E+000	...........	1367.91
	28	7.49167	2.48382E-001	2.48212E-001	0.00000E+000	...........	1367.87
	29	7.75	2.48329E-001	2.48168E-001	0.00000E+000	...........	1367.83
	30	8.00833	2.48276E-001	2.48106E-001	0.00000E+000	...........	1367.83
	31	8.26667	2.48222E-001	2.48039E-001	0.00000E+000	...........	1367.83
	32	8.525	2.48166E-001	2.47989E-001	0.00000E+000	...........	1367.83
	33	8.78333	2.48108E-001	2.47948E-001	0.00000E+000	...........	1367.83
	34	9.04167	2.48051E-001	2.47879E-001	0.00000E+000	...........	1367.83
	35	9.3	2.47996E-001	2.47826E-001	0.00000E+000	...........	1367.83
	36	9.5583	2.47942E-001	2.47788E-001	0.00000E+000	...........	1367.83
	37	9.8167	2.47889E-001	2.47732E-001	0.00000E+000	...........	1367.83
	38	10.075	2.47837E-001	2.47673E-001	0.00000E+000	...........	1367.83
	39	10.3333	2.47785E-001	2.47615E-001	0.00000E+000	...........	1367.83
	40	10.5917	2.47733E-001	2.47569E-001	0.00000E+000	...........	1367.91
	41	10.85	2.47678E-001	2.47519E-001	0.00000E+000	...........	1367.91
	42	11.1083	2.47625E-001	2.47464E-001	0.00000E+000	...........	1367.91
	43	11.3667	2.47572E-001	2.47397E-001	0.00000E+000	...........	1367.91
	44	11.625	2.47519E-001	2.47360E-001	0.00000E+000	...........	1367.91
	45	11.8833	2.47465E-001	2.47308E-001	0.00000E+000	...........	1367.91
	46	12.1417	2.47412E-001	2.47245E-001	0.00000E+000	...........	1367.91
	47	12.4	2.47360E-001	2.47191E-001	0.00000E+000	...........	1367.91
	48	12.6583	2.47307E-001	2.47148E-001	0.00000E+000	...........	1367.91
	49	12.9167	2.47253E-001	2.47099E-001	0.00000E+000	...........	1367.91
	50	13.175	2.47201E-001	2.47046E-001	0.00000E+000	...........	1367.91
	51	13.4333	2.47151E-001	2.47006E-001	0.00000E+000	...........	1367.91
	52	13.6917	2.47102E-001	2.46953E-001	0.00000E+000	...........	1367.91
	53	13.95	2.47053E-001	2.46906E-001	0.00000E+000	...........	1367.91
	54	14.2083	2.47005E-001	2.46847E-001	0.00000E+000	...........	1367.91
	55	14.4667	2.46956E-001	2.46804E-001	0.00000E+000	...........	1367.89
	56	14.725	2.46906E-001	2.46737E-001	0.00000E+000	...........	1367.48
	57	14.9833	2.46854E-001	2.46695E-001	0.00000E+000	...........	1367.48
EOC	QUANT	0.2468544	Open Circuit (V)
PSTATMODEL	IQUANT	64	Pstat Model
PSTATSECTION	LABEL	IFC1010-32247	Pstat Section
PSTATSERIALNO	LABEL	32247	Pstat Serial Number
CTRLMODE	IQUANT	1	Control Mode
ELECTROMETER	IQUANT	0	RE=0 or CS=1
IESTAB	IQUANT	2	I/E Stability
CASPEED	IQUANT	4	Control Amp Speed
CONVENTION	IQUANT	1	Current Convention
ICHRANGE	IQUANT	2	Ich Range
ICHRANGEMODE	TOGGLE	F	Ich Auto Range
ICHOFFSETENABLE	TOGGLE	F	Ich Offset Enable
ICHOFFSET	QUANT	0	Ich Offset (V)
ICHFILTER	IQUANT	3	Ich Filter
VCHRANGE	IQUANT	2	Vch Range
VCHRANGEMODE	TOGGLE	F	Vch Auto Range
VCHOFFSETENABLE	TOGGLE	F	Vch Offset Enable
VCHOFFSET	QUANT	0	Vch Offset (V)
VCHFILTER	IQUANT	3	Vch Filter
IERANGELOWERLIMIT	IQUANT	4	I/E Range Lower Limit
IERANGEMODE	TOGGLE	F	I/E AutoRange
IERANGE	IQUANT	8	I/E Range
ACHSELECT	IQUANT	0	Ach Select
ACHRANGE	IQUANT	2	Ach Range
ACHOFFSETENABLE	TOGGLE	F	Ach Offset Enable
ACHOFFSET	QUANT	0	Ach Offset (V)
ACHFILTER	IQUANT	1	Ach Filter
SENSECABLEID	IQUANT	14	Sense Cable ID
PWRCABLEID	IQUANT	14	Power Cable ID
DCCALDATE	LABEL	11/18/2024	DC Calibration Date
ACCALDATE	LABEL	4/18/2022	AC Calibration Date
FRAMEWORKVERSION	LABEL	7.10.3	Framework Version
INSTRUMENTVERSION	LABEL	4.91	Instrument Version
COMMVERSION	LABEL	3.10	Communications Version
CPUPLDVERSION	LABEL	2.22	CPU PLD Version
CTRLPLDVERSION	LABEL	0.00	CTRL PLD Version
PSTATPLDVERSION	LABEL	0.00	PSTAT PLD Version
CURVE1	TABLE
	Pt	T	Vf	Im	Vu	Sig	Ach	IERange	Over	Temp
	#	s	V vs. Ref.	A	V	V	V	#	bits	deg C
	0	0.1	2.46881E-001	-5.34373E-010	0.00000E+000	2.46836E-001	0.00000E+000	8	...........	1367.57
	3	0.4	2.16880E-001	-6.49495E-007	0.00000E+000	2.16843E-001	0.00000E+000	8	...........	1367.57
	6	0.7	1.86908E-001	-6.59438E-007	0.00000E+000	1.86851E-001	0.00000E+000	8	...........	1367.57
	9	1	1.56924E-001	-6.50097E-007	0.00000E+000	1.56859E-001	0.00000E+000	8	...........	1367.91
	12	1.3	1.26900E-001	-6.32362E-007	0.00000E+000	1.26866E-001	0.00000E+000	8	...........	1367.91
	15	1.6	9.69236E-002	-6.34791E-007	0.00000E+000	9.68742E-002	0.00000E+000	8	...........	1367.91
	18	1.9	6.68728E-002	-6.52003E-007	0.00000E+000	6.68319E-002	0.00000E+000	8	...........	1367.31
[...]
	804	80.5	6.10090E-001	-6.95138E-007	0.00000E+000	6.09993E-001	0.00000E+000	8	...........	1367.31
	805	80.6	6.00088E-001	-7.05661E-007	0.00000E+000	5.99995E-001	0.00000E+000	8	...........	1367.31
	806	80.7	5.90105E-001	-7.15437E-007	0.00000E+000	5.89998E-001	0.00000E+000	8	...........	1367.31
	807	80.8	5.80100E-001	-7.25745E-007	0.00000E+000	5.80001E-001	0.00000E+000	8	...........	1367.27
	808	80.9	5.70104E-001	-7.36960E-007	0.00000E+000	5.70003E-001	0.00000E+000	8	...........	1367.22
	809	81	5.60099E-001	-7.47531E-007	0.00000E+000	5.60006E-001	0.00000E+000	8	...........	1367.22
	810	81.1	5.50116E-001	-7.59724E-007	0.00000E+000	5.50008E-001	0.00000E+000	8	...........	1367.22
	811	81.2	5.40111E-001	-7.71541E-007	0.00000E+000	5.40011E-001	0.00000E+000	8	...........	1367.22
	812	81.3	5.30107E-001	-7.83508E-007	0.00000E+000	5.30013E-001	0.00000E+000	8	...........	1367.22
	813	81.4	5.20104E-001	-7.97633E-007	0.00000E+000	5.20016E-001	0.00000E+000	8	...........	1367.22
	814	81.5	5.10091E-001	-8.11753E-007	0.00000E+000	5.10018E-001	0.00000E+000	8	...........	1367.22
	815	81.6	5.00121E-001	-8.24403E-007	0.00000E+000	5.00021E-001	0.00000E+000	8	...........	1367.22
	816	81.7	4.90121E-001	-8.41377E-007	0.00000E+000	4.90024E-001	0.00000E+000	8	...........	1367.22
	817	81.8	4.80069E-001	-8.60589E-007	0.00000E+000	4.79976E-001	0.00000E+000	8	...........	1367.22
	818	81.9	4.70058E-001	-8.72881E-007	0.00000E+000	4.69979E-001	0.00000E+000	8	...........	1367.22
	819	82	4.60062E-001	-8.89295E-007	0.00000E+000	4.59981E-001	0.00000E+000	8	...........	1367.22
	820	82.1	4.50065E-001	-9.05125E-007	0.00000E+000	4.49984E-001	0.00000E+000	8	...........	1367.22
	821	82.2	4.40067E-001	-9.22601E-007	0.00000E+000	4.39986E-001	0.00000E+000	8	...........	1367.22
	822	82.3	4.30072E-001	-9.38715E-007	0.00000E+000	4.29989E-001	0.00000E+000	8	...........	1367.22
	823	82.4	4.20067E-001	-9.54407E-007	0.00000E+000	4.19991E-001	0.00000E+000	8	...........	1367.22
	824	82.5	4.10077E-001	-9.69693E-007	0.00000E+000	4.09994E-001	0.00000E+000	8	...........	1367.22
	825	82.6	4.00066E-001	-9.81174E-007	0.00000E+000	3.99997E-001	0.00000E+000	8	...........	1367.22
	826	82.7	3.90070E-001	-9.93369E-007	0.00000E+000	3.89999E-001	0.00000E+000	8	...........	1367.22
	827	82.8	3.80060E-001	-1.00254E-006	0.00000E+000	3.80002E-001	0.00000E+000	8	...........	1367.18
	828	82.9	3.70071E-001	-1.00608E-006	0.00000E+000	3.70004E-001	0.00000E+000	8	...........	1367.14
	829	83	3.60073E-001	-1.00035E-006	0.00000E+000	3.60007E-001	0.00000E+000	8	...........	1367.14
	830	83.1	3.50076E-001	-9.93434E-007	0.00000E+000	3.50009E-001	0.00000E+000	8	...........	1367.14
	831	83.2	3.40082E-001	-9.89940E-007	0.00000E+000	3.40012E-001	0.00000E+000	8	...........	1367.14
	832	83.3	3.30082E-001	-9.88961E-007	0.00000E+000	3.30014E-001	0.00000E+000	8	...........	1367.14
	833	83.4	3.20091E-001	-9.87273E-007	0.00000E+000	3.20017E-001	0.00000E+000	8	...........	1367.14
	834	83.5	3.10088E-001	-9.86361E-007	0.00000E+000	3.10020E-001	0.00000E+000	8	...........	1367.14
	835	83.6	3.00078E-001	-9.82967E-007	0.00000E+000	3.00022E-001	0.00000E+000	8	...........	1367.14
	836	83.7	2.90085E-001	-9.81097E-007	0.00000E+000	2.90025E-001	0.00000E+000	8	...........	1367.14
	837	83.8	2.80039E-001	-9.80341E-007	0.00000E+000	2.79977E-001	0.00000E+000	8	...........	1367.14
	838	83.9	2.70051E-001	-9.69887E-007	0.00000E+000	2.69980E-001	0.00000E+000	8	...........	1367.14
	839	84	2.60055E-001	-9.63227E-007	0.00000E+000	2.59982E-001	0.00000E+000	8	...........	1367.14
	840	84.1	2.50049E-001	-9.57255E-007	0.00000E+000	2.49985E-001	0.00000E+000	8	...........	1367.14