Folder: EchemAnalysis_MATLAB/Test_Data_Files (part 3)

File: 20250424_G_CHI105_2mmAu_E000_PBSarg_CV50000.DTA
EXPLAIN
TAG	CV
TITLE	LABEL	Cyclic Voltammetry	Test &Identifier
DATE	LABEL	4/24/2025	Date
TIME	LABEL	17:03:24	Time
NOTES	NOTES	3	&Notes...

PSTAT	PSTAT	IFC1010-32247	Potentiostat
VINIT	POTEN	0.00000E+000	T	Initial &E (V)
VLIMIT1	POTEN	-6.00000E-001	F	Scan Limit &1 (V)
VLIMIT2	POTEN	8.00000E-001	F	Scan Limit &2 (V)
VFINAL	POTEN	0.00000E+000	T	Final &E (V)
SCANRATE	QUANT	4.99999E+004	&Scan Rate (mV/s)
STEPSIZE	QUANT	1.00000E+001	St&ep Size (mV)
CYCLES	IQUANT	3	C&ycles (#)
IMODE	SELECTOR	1	I/E Range &Mode
IRANGE	QUANT	1.00000E-001	&Max Current (mA)
AREA	QUANT	1.00000E+000	Electrode &Area (cm^2)
ELECTRODETYPE	SELECTOR	0	Electrode Type
STRIPPING	TOGGLE	F	Used for Stripping
CONDIT	TWOPARAM	F	1.50000E+001	0.00000E+000	Conditionin&g	Time(s)	E(V)
DELAY	TWOPARAM	T	1.50000E+001	0.00000E+000	Init. De&lay	Time(s)	Stab.(mV/s)
EQDELAY	QUANT	0.00000E+000	Equil. &Time (s)
IRCOMP	SELECTOR	0	IRCom&p
PFCOR	QUANT	5.00000E+001	PF Corr. (ohm)
SAMPLINGMODE	SELECTOR	2	Sampling &Mode
OCVCURVE	TABLE	58
	Pt	T	Vf	Vm	Ach	Over	Temp
	#	s	V vs. Ref.	V	V	bits	deg C
	0	0.258333	2.85712E-001	2.85712E-001	0.00000E+000	...........	1367.83
	1	0.516667	2.85711E-001	2.85653E-001	0.00000E+000	...........	1367.83
	2	0.775	2.85705E-001	2.85627E-001	0.00000E+000	...........	1367.91
	3	1.03333	2.85688E-001	2.85577E-001	0.00000E+000	...........	1367.91
	4	1.29167	2.85660E-001	2.85522E-001	0.00000E+000	...........	1367.91
	5	1.55	2.85622E-001	2.85477E-001	0.00000E+000	...........	1367.91
	6	1.80833	2.85578E-001	2.85449E-001	0.00000E+000	...........	1368.00
	7	2.06667	2.85532E-001	2.85411E-001	0.00000E+000	...........	1368.00
	8	2.325	2.85489E-001	2.85345E-001	0.00000E+000	...........	1368.00
	9	2.58333	2.85447E-001	2.85304E-001	0.00000E+000	...........	1368.00
	10	2.84167	2.85403E-001	2.85281E-001	0.00000E+000	...........	1368.00
	11	3.1	2.85358E-001	2.85214E-001	0.00000E+000	...........	1368.00
	12	3.35833	2.85314E-001	2.85171E-001	0.00000E+000	...........	1368.00
	13	3.61667	2.85269E-001	2.85123E-001	0.00000E+000	...........	1368.00
	14	3.875	2.85223E-001	2.85092E-001	0.00000E+000	...........	1368.00
	15	4.13333	2.85177E-001	2.85044E-001	0.00000E+000	...........	1368.00
	16	4.39167	2.85133E-001	2.85013E-001	0.00000E+000	...........	1368.00
	17	4.65	2.85091E-001	2.84948E-001	0.00000E+000	...........	1367.92
	18	4.90833	2.85049E-001	2.84921E-001	0.00000E+000	...........	1367.91
	19	5.16667	2.85006E-001	2.84865E-001	0.00000E+000	...........	1367.91
	20	5.425	2.84962E-001	2.84813E-001	0.00000E+000	...........	1367.91
	21	5.68333	2.84916E-001	2.84782E-001	0.00000E+000	...........	1367.91
	22	5.94167	2.84870E-001	2.84732E-001	0.00000E+000	...........	1367.91
	23	6.2	2.84825E-001	2.84713E-001	0.00000E+000	...........	1367.91
	24	6.45833	2.84783E-001	2.84657E-001	0.00000E+000	...........	1367.91
	25	6.71667	2.84743E-001	2.84610E-001	0.00000E+000	...........	1368.00
	26	6.975	2.84703E-001	2.84562E-001	0.00000E+000	...........	1368.00
	27	7.23333	2.84660E-001	2.84540E-001	0.00000E+000	...........	1368.00
	28	7.49167	2.84616E-001	2.84469E-001	0.00000E+000	...........	1368.00
	29	7.75	2.84573E-001	2.84450E-001	0.00000E+000	...........	1368.00
	30	8.00833	2.84530E-001	2.84400E-001	0.00000E+000	...........	1368.00
	31	8.26667	2.84487E-001	2.84347E-001	0.00000E+000	...........	1368.00
	32	8.525	2.84444E-001	2.84310E-001	0.00000E+000	...........	1368.00
	33	8.78333	2.84401E-001	2.84263E-001	0.00000E+000	...........	1368.00
	34	9.04167	2.84356E-001	2.84222E-001	0.00000E+000	...........	1368.00
	35	9.3	2.84312E-001	2.84179E-001	0.00000E+000	...........	1368.00
	36	9.5583	2.84268E-001	2.84132E-001	0.00000E+000	...........	1368.00
	37	9.8167	2.84224E-001	2.84089E-001	0.00000E+000	...........	1367.91
	38	10.075	2.84181E-001	2.84054E-001	0.00000E+000	...........	1367.91
	39	10.3333	2.84138E-001	2.84016E-001	0.00000E+000	...........	1367.91
	40	10.5917	2.84096E-001	2.83962E-001	0.00000E+000	...........	1367.91
	41	10.85	2.84055E-001	2.83901E-001	0.00000E+000	...........	1368.00
	42	11.1083	2.84011E-001	2.83881E-001	0.00000E+000	...........	1368.00
	43	11.3667	2.83965E-001	2.83837E-001	0.00000E+000	...........	1368.00
	44	11.625	2.83921E-001	2.83808E-001	0.00000E+000	...........	1367.78
	45	11.8833	2.83880E-001	2.83753E-001	0.00000E+000	...........	1367.48
	46	12.1417	2.83841E-001	2.83720E-001	0.00000E+000	...........	1367.48
	47	12.4	2.83802E-001	2.83676E-001	0.00000E+000	...........	1367.48
	48	12.6583	2.83762E-001	2.83622E-001	0.00000E+000	...........	1367.91
	49	12.9167	2.83719E-001	2.83580E-001	0.00000E+000	...........	1367.91
	50	13.175	2.83675E-001	2.83539E-001	0.00000E+000	...........	1367.91
	51	13.4333	2.83630E-001	2.83502E-001	0.00000E+000	...........	1367.91
	52	13.6917	2.83586E-001	2.83466E-001	0.00000E+000	...........	1367.91
	53	13.95	2.83545E-001	2.83430E-001	0.00000E+000	...........	1367.91
	54	14.2083	2.83506E-001	2.83383E-001	0.00000E+000	...........	1367.91
	55	14.4667	2.83467E-001	2.83332E-001	0.00000E+000	...........	1367.91
	56	14.725	2.83427E-001	2.83289E-001	0.00000E+000	...........	1368.00
	57	14.9833	2.83384E-001	2.83250E-001	0.00000E+000	...........	1368.00
EOC	QUANT	0.2833837	Open Circuit (V)
PSTATMODEL	IQUANT	64	Pstat Model
PSTATSECTION	LABEL	IFC1010-32247	Pstat Section
PSTATSERIALNO	LABEL	32247	Pstat Serial Number
CTRLMODE	IQUANT	1	Control Mode
ELECTROMETER	IQUANT	0	RE=0 or CS=1
IESTAB	IQUANT	2	I/E Stability
CASPEED	IQUANT	4	Control Amp Speed
CONVENTION	IQUANT	1	Current Convention
ICHRANGE	IQUANT	2	Ich Range
ICHRANGEMODE	TOGGLE	F	Ich Auto Range
ICHOFFSETENABLE	TOGGLE	F	Ich Offset Enable
ICHOFFSET	QUANT	0	Ich Offset (V)
ICHFILTER	IQUANT	2	Ich Filter
VCHRANGE	IQUANT	2	Vch Range
VCHRANGEMODE	TOGGLE	F	Vch Auto Range
VCHOFFSETENABLE	TOGGLE	F	Vch Offset Enable
VCHOFFSET	QUANT	0	Vch Offset (V)
VCHFILTER	IQUANT	2	Vch Filter
IERANGELOWERLIMIT	IQUANT	4	I/E Range Lower Limit
IERANGEMODE	TOGGLE	F	I/E AutoRange
IERANGE	IQUANT	9	I/E Range
ACHSELECT	IQUANT	0	Ach Select
ACHRANGE	IQUANT	2	Ach Range
ACHOFFSETENABLE	TOGGLE	F	Ach Offset Enable
ACHOFFSET	QUANT	0	Ach Offset (V)
ACHFILTER	IQUANT	1	Ach Filter
SENSECABLEID	IQUANT	14	Sense Cable ID
PWRCABLEID	IQUANT	14	Power Cable ID
DCCALDATE	LABEL	11/18/2024	DC Calibration Date
ACCALDATE	LABEL	4/18/2022	AC Calibration Date
FRAMEWORKVERSION	LABEL	7.10.3	Framework Version
INSTRUMENTVERSION	LABEL	4.91	Instrument Version
COMMVERSION	LABEL	3.10	Communications Version
CPUPLDVERSION	LABEL	2.22	CPU PLD Version
CTRLPLDVERSION	LABEL	0.00	CTRL PLD Version
PSTATPLDVERSION	LABEL	0.00	PSTAT PLD Version
CURVE1	TABLE
	Pt	T	Vf	Im	Vu	Sig	Ach	IERange	Over	Temp
	#	s	V vs. Ref.	A	V	V	V	#	bits	deg C
	0	0.0002	2.83419E-001	2.81055E-007	0.00000E+000	2.83376E-001	0.00000E+000	9	...........	1368.00
	3	0.0008	2.53851E-001	-1.43949E-004	0.00000E+000	2.53384E-001	0.00000E+000	9	...........	1368.00
	6	0.0014	2.23863E-001	-2.05156E-004	0.00000E+000	2.23392E-001	0.00000E+000	9	...........	1368.00
	9	0.002	1.93835E-001	-2.32194E-004	0.00000E+000	1.93399E-001	0.00000E+000	9	...........	1368.00
	12	0.0026	1.63797E-001	-2.44403E-004	0.00000E+000	1.63407E-001	0.00000E+000	9	...........	1368.00
	15	0.0032	1.33829E-001	-2.50216E-004	0.00000E+000	1.33365E-001	0.00000E+000	9	...........	1368.00
	18	0.0038	1.03811E-001	-2.54149E-004	0.00000E+000	1.03373E-001	0.00000E+000	9	...........	1368.00
[...]
	805	0.1612	6.30453E-001	-1.74896E-004	0.00000E+000	6.29988E-001	0.00000E+000	9	...........	1368.00
	806	0.1614	6.20410E-001	-1.82731E-004	0.00000E+000	6.19990E-001	0.00000E+000	9	...........	1368.00
	807	0.1616	6.10447E-001	-1.90310E-004	0.00000E+000	6.09993E-001	0.00000E+000	9	...........	1368.00
	808	0.1618	6.00475E-001	-1.97538E-004	0.00000E+000	5.99995E-001	0.00000E+000	9	...........	1368.00
	809	0.162	5.90462E-001	-2.04226E-004	0.00000E+000	5.89998E-001	0.00000E+000	9	...........	1368.00
	810	0.1622	5.80499E-001	-2.10443E-004	0.00000E+000	5.80001E-001	0.00000E+000	9	...........	1368.00
	811	0.1624	5.70436E-001	-2.15987E-004	0.00000E+000	5.70003E-001	0.00000E+000	9	...........	1368.00
	812	0.1626	5.60444E-001	-2.21080E-004	0.00000E+000	5.60006E-001	0.00000E+000	9	...........	1368.00
	813	0.1628	5.50391E-001	-2.25863E-004	0.00000E+000	5.50008E-001	0.00000E+000	9	...........	1368.00
	814	0.163	5.40448E-001	-2.30173E-004	0.00000E+000	5.40011E-001	0.00000E+000	9	...........	1368.00
	815	0.1632	5.30496E-001	-2.34202E-004	0.00000E+000	5.30013E-001	0.00000E+000	9	...........	1368.00
	816	0.1634	5.20413E-001	-2.38665E-004	0.00000E+000	5.20016E-001	0.00000E+000	9	...........	1368.00
	817	0.1636	5.10460E-001	-2.42621E-004	0.00000E+000	5.10018E-001	0.00000E+000	9	...........	1368.00
	818	0.1638	5.00468E-001	-2.46704E-004	0.00000E+000	5.00021E-001	0.00000E+000	9	...........	1368.00
	819	0.164	4.90475E-001	-2.50910E-004	0.00000E+000	4.90024E-001	0.00000E+000	9	...........	1368.00
	820	0.1642	4.80412E-001	-2.55507E-004	0.00000E+000	4.79976E-001	0.00000E+000	9	...........	1368.00
	821	0.1644	4.70440E-001	-2.59950E-004	0.00000E+000	4.69979E-001	0.00000E+000	9	...........	1368.00
	822	0.1646	4.60427E-001	-2.64609E-004	0.00000E+000	4.59981E-001	0.00000E+000	9	...........	1368.00
	823	0.1648	4.50454E-001	-2.69329E-004	0.00000E+000	4.49984E-001	0.00000E+000	9	...........	1368.00
	824	0.165	4.40441E-001	-2.74433E-004	0.00000E+000	4.39986E-001	0.00000E+000	9	...........	1368.00
	825	0.1652	4.30439E-001	-2.79509E-004	0.00000E+000	4.29989E-001	0.00000E+000	9	...........	1368.00
	826	0.1654	4.20446E-001	-2.84966E-004	0.00000E+000	4.19991E-001	0.00000E+000	9	...........	1368.00
	827	0.1656	4.10453E-001	-2.90547E-004	0.00000E+000	4.09994E-001	0.00000E+000	9	...........	1368.00
	828	0.1658	4.00441E-001	-2.96224E-004	0.00000E+000	3.99997E-001	0.00000E+000	9	...........	1368.00
	829	0.166	3.90428E-001	-3.01894E-004	0.00000E+000	3.89999E-001	0.00000E+000	9	...........	1368.00
	830	0.1662	3.80405E-001	-3.07658E-004	0.00000E+000	3.80002E-001	0.00000E+000	9	...........	1368.00
	831	0.1664	3.70423E-001	-3.13419E-004	0.00000E+000	3.70004E-001	0.00000E+000	9	...........	1368.00
	832	0.1666	3.60450E-001	-3.19122E-004	0.00000E+000	3.60007E-001	0.00000E+000	9	...........	1368.00
	833	0.1668	3.50467E-001	-3.24579E-004	0.00000E+000	3.50009E-001	0.00000E+000	9	...........	1368.00
	834	0.167	3.40495E-001	-3.29863E-004	0.00000E+000	3.40012E-001	0.00000E+000	9	...........	1368.00
	835	0.1672	3.30422E-001	-3.34736E-004	0.00000E+000	3.30014E-001	0.00000E+000	9	...........	1368.00
	836	0.1674	3.20509E-001	-3.39006E-004	0.00000E+000	3.20017E-001	0.00000E+000	9	...........	1368.00
	837	0.1676	3.10476E-001	-3.42802E-004	0.00000E+000	3.10020E-001	0.00000E+000	9	...........	1368.00
	838	0.1678	3.00514E-001	-3.46027E-004	0.00000E+000	3.00022E-001	0.00000E+000	9	...........	1368.00
	839	0.168	2.90481E-001	-3.48742E-004	0.00000E+000	2.90025E-001	0.00000E+000	9	...........	1368.00
	840	0.1682	2.80388E-001	-3.51558E-004	0.00000E+000	2.79977E-001	0.00000E+000	9	...........	1368.00

File: 20250424_J_CHI105_12,5umAu_E000_PBSarg_CV50.DTA
EXPLAIN
TAG	CV
TITLE	LABEL	Cyclic Voltammetry	Test &Identifier
DATE	LABEL	4/24/2025	Date
TIME	LABEL	13:16:19	Time
NOTES	NOTES	3	&Notes...

PSTAT	PSTAT	IFC1010-32247	Potentiostat
VINIT	POTEN	0.00000E+000	T	Initial &E (V)
VLIMIT1	POTEN	-6.00000E-001	F	Scan Limit &1 (V)
VLIMIT2	POTEN	8.00000E-001	F	Scan Limit &2 (V)
VFINAL	POTEN	0.00000E+000	T	Final &E (V)
SCANRATE	QUANT	4.99999E+001	&Scan Rate (mV/s)
STEPSIZE	QUANT	1.00000E+001	St&ep Size (mV)
CYCLES	IQUANT	2	C&ycles (#)
IMODE	SELECTOR	0	I/E Range &Mode
IRANGE	QUANT	1.00000E-004	&Max Current (mA)
AREA	QUANT	1.00000E+000	Electrode &Area (cm^2)
ELECTRODETYPE	SELECTOR	0	Electrode Type
STRIPPING	TOGGLE	F	Used for Stripping
CONDIT	TWOPARAM	F	1.50000E+001	0.00000E+000	Conditionin&g	Time(s)	E(V)
DELAY	TWOPARAM	T	1.50000E+001	0.00000E+000	Init. De&lay	Time(s)	Stab.(mV/s)
EQDELAY	QUANT	0.00000E+000	Equil. &Time (s)
IRCOMP	SELECTOR	0	IRCom&p
PFCOR	QUANT	5.00000E+001	PF Corr. (ohm)
SAMPLINGMODE	SELECTOR	2	Sampling &Mode
OCVCURVE	TABLE	58
	Pt	T	Vf	Vm	Ach	Over	Temp
	#	s	V vs. Ref.	V	V	bits	deg C
	0	0.258333	8.62320E-001	8.62320E-001	0.00000E+000	...........	1367.57
	1	0.516667	8.62338E-001	8.63217E-001	0.00000E+000	...........	1367.57
	2	0.775	8.62441E-001	8.63983E-001	0.00000E+000	...........	1367.57
	3	1.03333	8.62729E-001	8.64726E-001	0.00000E+000	...........	1367.48
	4	1.29167	8.63236E-001	8.65543E-001	0.00000E+000	...........	1367.48
	5	1.55	8.63910E-001	8.66348E-001	0.00000E+000	...........	1367.48
	6	1.80833	8.64670E-001	8.67042E-001	0.00000E+000	...........	1367.48
	7	2.06667	8.65456E-001	8.67766E-001	0.00000E+000	...........	1367.57
	8	2.325	8.66229E-001	8.68425E-001	0.00000E+000	...........	1367.57
	9	2.58333	8.66972E-001	8.69113E-001	0.00000E+000	...........	1367.57
	10	2.84167	8.67686E-001	8.69786E-001	0.00000E+000	...........	1367.57
	11	3.1	8.68376E-001	8.70326E-001	0.00000E+000	...........	1367.57
	12	3.35833	8.69041E-001	8.70891E-001	0.00000E+000	...........	1367.57
	13	3.61667	8.69674E-001	8.71435E-001	0.00000E+000	...........	1367.57
	14	3.875	8.70269E-001	8.71900E-001	0.00000E+000	...........	1367.57
	15	4.13333	8.70829E-001	8.72338E-001	0.00000E+000	...........	1367.57
	16	4.39167	8.71354E-001	8.72870E-001	0.00000E+000	...........	1367.57
	17	4.65	8.71852E-001	8.73365E-001	0.00000E+000	...........	1367.57
	18	4.90833	8.72342E-001	8.73992E-001	0.00000E+000	...........	1367.57
	19	5.16667	8.72846E-001	8.74540E-001	0.00000E+000	...........	1367.48
	20	5.425	8.73376E-001	8.75064E-001	0.00000E+000	...........	1367.48
	21	5.68333	8.73925E-001	8.75647E-001	0.00000E+000	...........	1367.48
	22	5.94167	8.74479E-001	8.76102E-001	0.00000E+000	...........	1367.36
	23	6.2	8.75025E-001	8.76567E-001	0.00000E+000	...........	1367.22
	24	6.45833	8.75551E-001	8.77000E-001	0.00000E+000	...........	1367.22
	25	6.71667	8.76046E-001	8.77396E-001	0.00000E+000	...........	1367.22
	26	6.975	8.76509E-001	8.77744E-001	0.00000E+000	...........	1367.48
	27	7.23333	8.76941E-001	8.78173E-001	0.00000E+000	...........	1367.48
	28	7.49167	8.77348E-001	8.78562E-001	0.00000E+000	...........	1367.48
	29	7.75	8.77744E-001	8.78980E-001	0.00000E+000	...........	1367.48
	30	8.00833	8.78137E-001	8.79227E-001	0.00000E+000	...........	1367.57
	31	8.26667	8.78522E-001	8.79663E-001	0.00000E+000	...........	1367.57
	32	8.525	8.78892E-001	8.79922E-001	0.00000E+000	...........	1367.57
	33	8.78333	8.79245E-001	8.80219E-001	0.00000E+000	...........	1367.57
	34	9.04167	8.79581E-001	8.80581E-001	0.00000E+000	...........	1367.57
	35	9.3	8.79905E-001	8.80928E-001	0.00000E+000	...........	1367.57
	36	9.5583	8.80227E-001	8.81238E-001	0.00000E+000	...........	1367.57
	37	9.8167	8.80553E-001	8.81467E-001	0.00000E+000	...........	1367.57
	38	10.075	8.80872E-001	8.81721E-001	0.00000E+000	...........	1367.57
	39	10.3333	8.81168E-001	8.81813E-001	0.00000E+000	...........	1367.57
	40	10.5917	8.81426E-001	8.82015E-001	0.00000E+000	...........	1367.57
	41	10.85	8.81643E-001	8.82183E-001	0.00000E+000	...........	1367.57
	42	11.1083	8.81830E-001	8.82406E-001	0.00000E+000	...........	1367.57
	43	11.3667	8.82010E-001	8.82673E-001	0.00000E+000	...........	1367.57
	44	11.625	8.82205E-001	8.83073E-001	0.00000E+000	...........	1367.57
	45	11.8833	8.82437E-001	8.83454E-001	0.00000E+000	...........	1367.57
	46	12.1417	8.82719E-001	8.83693E-001	0.00000E+000	...........	1367.57
	47	12.4	8.83035E-001	8.83909E-001	0.00000E+000	...........	1367.57
	48	12.6583	8.83352E-001	8.84247E-001	0.00000E+000	...........	1367.57
	49	12.9167	8.83651E-001	8.84581E-001	0.00000E+000	...........	1367.57
	50	13.175	8.83941E-001	8.84874E-001	0.00000E+000	...........	1367.57
	51	13.4333	8.84236E-001	8.85123E-001	0.00000E+000	...........	1367.57
	52	13.6917	8.84537E-001	8.85541E-001	0.00000E+000	...........	1367.57
	53	13.95	8.84846E-001	8.86014E-001	0.00000E+000	...........	1367.30
	54	14.2083	8.85179E-001	8.86330E-001	0.00000E+000	...........	1367.14
	55	14.4667	8.85543E-001	8.86740E-001	0.00000E+000	...........	1367.14
	56	14.725	8.85926E-001	8.87015E-001	0.00000E+000	...........	1367.14
	57	14.9833	8.86301E-001	8.87217E-001	0.00000E+000	...........	1367.48
EOC	QUANT	0.8863007	Open Circuit (V)
PSTATMODEL	IQUANT	64	Pstat Model
PSTATSECTION	LABEL	IFC1010-32247	Pstat Section
PSTATSERIALNO	LABEL	32247	Pstat Serial Number
CTRLMODE	IQUANT	1	Control Mode
ELECTROMETER	IQUANT	0	RE=0 or CS=1
IESTAB	IQUANT	2	I/E Stability
CASPEED	IQUANT	4	Control Amp Speed
CONVENTION	IQUANT	1	Current Convention
ICHRANGE	IQUANT	2	Ich Range
ICHRANGEMODE	TOGGLE	F	Ich Auto Range
ICHOFFSETENABLE	TOGGLE	F	Ich Offset Enable
ICHOFFSET	QUANT	0	Ich Offset (V)
ICHFILTER	IQUANT	3	Ich Filter
VCHRANGE	IQUANT	2	Vch Range
VCHRANGEMODE	TOGGLE	F	Vch Auto Range
VCHOFFSETENABLE	TOGGLE	F	Vch Offset Enable
VCHOFFSET	QUANT	0	Vch Offset (V)
VCHFILTER	IQUANT	3	Vch Filter
IERANGELOWERLIMIT	IQUANT	4	I/E Range Lower Limit
IERANGEMODE	TOGGLE	T	I/E AutoRange
IERANGE	IQUANT	6	I/E Range
ACHSELECT	IQUANT	0	Ach Select
ACHRANGE	IQUANT	2	Ach Range
ACHOFFSETENABLE	TOGGLE	F	Ach Offset Enable
ACHOFFSET	QUANT	0	Ach Offset (V)
ACHFILTER	IQUANT	1	Ach Filter
SENSECABLEID	IQUANT	14	Sense Cable ID
PWRCABLEID	IQUANT	14	Power Cable ID
DCCALDATE	LABEL	11/18/2024	DC Calibration Date
ACCALDATE	LABEL	4/18/2022	AC Calibration Date
FRAMEWORKVERSION	LABEL	7.10.3	Framework Version
INSTRUMENTVERSION	LABEL	4.91	Instrument Version
COMMVERSION	LABEL	3.10	Communications Version
CPUPLDVERSION	LABEL	2.22	CPU PLD Version
CTRLPLDVERSION	LABEL	0.00	CTRL PLD Version
PSTATPLDVERSION	LABEL	0.00	PSTAT PLD Version
CURVE1	TABLE
	Pt	T	Vf	Im	Vu	Sig	Ach	IERange	Over	Temp
	#	s	V vs. Ref.	A	V	V	V	#	bits	deg C
	0	0.2	8.86395E-001	-9.23047E-011	0.00000E+000	8.86322E-001	0.00000E+000	6	...........	1367.57
	3	0.8	8.56335E-001	-1.51961E-011	0.00000E+000	8.56279E-001	0.00000E+000	5	...........	1367.57
	6	1.4	8.26360E-001	-2.16665E-011	0.00000E+000	8.26287E-001	0.00000E+000	5	...........	1367.05
	9	2	7.96368E-001	-2.56786E-011	0.00000E+000	7.96295E-001	0.00000E+000	5	...........	1366.84
	12	2.6	7.66352E-001	-3.07098E-011	0.00000E+000	7.66302E-001	0.00000E+000	5	...........	1366.79
	15	3.2	7.36404E-001	-3.50339E-011	0.00000E+000	7.36310E-001	0.00000E+000	5	...........	1366.97
	18	3.8	7.06391E-001	-4.08726E-011	0.00000E+000	7.06318E-001	0.00000E+000	5	...........	1366.97
[...]
	491	98.4	1.99756E-002	5.28793E-011	0.00000E+000	1.99934E-002	0.00000E+000	5	...........	1366.97
	494	99	4.99816E-002	5.64402E-011	0.00000E+000	4.99857E-002	0.00000E+000	5	...........	1366.97
	497	99.6	7.99645E-002	5.81823E-011	0.00000E+000	7.99781E-002	0.00000E+000	5	...........	1366.97
	500	100.2	1.10013E-001	6.06501E-011	0.00000E+000	1.10020E-001	0.00000E+000	5	...........	1366.97
	503	100.8	1.39998E-001	6.19379E-011	0.00000E+000	1.40013E-001	0.00000E+000	5	...........	1366.97
	506	101.4	1.69995E-001	6.42510E-011	0.00000E+000	1.70005E-001	0.00000E+000	5	...........	1366.97
	509	102	1.99993E-001	6.61842E-011	0.00000E+000	1.99997E-001	0.00000E+000	5	...........	1366.97
	512	102.6	2.30017E-001	7.11634E-011	0.00000E+000	2.29990E-001	0.00000E+000	5	...........	1366.97
	515	103.2	2.59982E-001	7.28306E-011	0.00000E+000	2.59982E-001	0.00000E+000	5	...........	1366.97
	518	103.8	2.90024E-001	7.39658E-011	0.00000E+000	2.90024E-001	0.00000E+000	5	...........	1366.97
	521	104.4	3.20046E-001	7.53721E-011	0.00000E+000	3.20017E-001	0.00000E+000	5	...........	1366.97
	524	105	3.50011E-001	7.63701E-011	0.00000E+000	3.50009E-001	0.00000E+000	5	...........	1366.97
	527	105.6	3.80004E-001	7.75158E-011	0.00000E+000	3.80001E-001	0.00000E+000	5	...........	1366.97
	530	106.2	4.10022E-001	7.39435E-011	0.00000E+000	4.09994E-001	0.00000E+000	5	...........	1366.97
	533	106.8	4.40014E-001	7.29947E-011	0.00000E+000	4.39986E-001	0.00000E+000	5	...........	1366.97
	536	107.4	4.69995E-001	7.04825E-011	0.00000E+000	4.69978E-001	0.00000E+000	5	...........	1366.97
	539	108	5.00048E-001	6.79482E-011	0.00000E+000	5.00021E-001	0.00000E+000	5	...........	1366.97
	542	108.6	5.30042E-001	6.80586E-011	0.00000E+000	5.30013E-001	0.00000E+000	5	...........	1366.97
	545	109.2	5.60038E-001	6.59878E-011	0.00000E+000	5.60005E-001	0.00000E+000	5	...........	1366.97
	548	109.8	5.90029E-001	6.46313E-011	0.00000E+000	5.89998E-001	0.00000E+000	5	...........	1366.97
	551	110.4	6.20027E-001	6.38605E-011	0.00000E+000	6.19990E-001	0.00000E+000	5	...........	1366.88
	554	111	6.50035E-001	6.18589E-011	0.00000E+000	6.49982E-001	0.00000E+000	5	...........	1366.95
	557	111.6	6.80075E-001	6.19182E-011	0.00000E+000	6.80025E-001	0.00000E+000	5	...........	1366.97
	560	112.2	7.10088E-001	6.48646E-011	0.00000E+000	7.10017E-001	0.00000E+000	5	...........	1366.97
	563	112.8	7.40068E-001	6.88219E-011	0.00000E+000	7.40009E-001	0.00000E+000	5	...........	1366.97
	566	113.4	7.70062E-001	8.30978E-011	0.00000E+000	7.70001E-001	0.00000E+000	5	...........	1366.97
	569	114	8.00054E-001	1.17240E-010	0.00000E+000	7.99994E-001	0.00000E+000	5	...........	1366.97
CURVE3	TABLE
	Pt	T	Vf	Im	Vu	Sig	Ach	IERange	Over	Temp
	#	s	V vs. Ref.	A	V	V	V	#	bits	deg C
	570	114.2	8.10042E-001	1.37888E-010	0.00000E+000	8.09991E-001	0.00000E+000	5	...........	1366.97
	571	114.4	8.20033E-001	1.67583E-010	0.00000E+000	8.19989E-001	0.00000E+000	5	...........	1366.97
	572	114.6	8.30033E-001	2.03369E-010	0.00000E+000	8.29986E-001	0.00000E+000	5	...........	1366.97
	573	114.8	8.40032E-001	2.47473E-010	0.00000E+000	8.39983E-001	0.00000E+000	5	...........	1366.97
	574	115	8.50029E-001	2.93401E-010	0.00000E+000	8.49981E-001	0.00000E+000	5	...........	1366.97
	575	115.2	8.60023E-001	3.45724E-010	0.00000E+000	8.59978E-001	0.00000E+000	5	...........	1366.97
	576	115.4	8.70053E-001	4.03447E-010	0.00000E+000	8.69976E-001	0.00000E+000	5	...........	1366.97
	577	115.6	8.80087E-001	4.68383E-010	0.00000E+000	8.80023E-001	0.00000E+000	5	...........	1366.97
	578	115.8	8.90081E-001	5.52272E-010	0.00000E+000	8.90021E-001	0.00000E+000	5	...........	1366.97