Folder: EchemAnalysis_MATLAB/Test_Data_Files (part 2)

File: 20250424_E_CHI105_2mmAu_E000_PBSarg_CV500.DTA
EXPLAIN
TAG	CV
TITLE	LABEL	Cyclic Voltammetry	Test &Identifier
DATE	LABEL	4/24/2025	Date
TIME	LABEL	16:59:26	Time
NOTES	NOTES	3	&Notes...

PSTAT	PSTAT	IFC1010-32247	Potentiostat
VINIT	POTEN	0.00000E+000	T	Initial &E (V)
VLIMIT1	POTEN	-6.00000E-001	F	Scan Limit &1 (V)
VLIMIT2	POTEN	8.00000E-001	F	Scan Limit &2 (V)
VFINAL	POTEN	0.00000E+000	T	Final &E (V)
SCANRATE	QUANT	4.99999E+002	&Scan Rate (mV/s)
STEPSIZE	QUANT	1.00000E+001	St&ep Size (mV)
CYCLES	IQUANT	3	C&ycles (#)
IMODE	SELECTOR	1	I/E Range &Mode
IRANGE	QUANT	1.00000E-002	&Max Current (mA)
AREA	QUANT	1.00000E+000	Electrode &Area (cm^2)
ELECTRODETYPE	SELECTOR	0	Electrode Type
STRIPPING	TOGGLE	F	Used for Stripping
CONDIT	TWOPARAM	F	1.50000E+001	0.00000E+000	Conditionin&g	Time(s)	E(V)
DELAY	TWOPARAM	T	1.50000E+001	0.00000E+000	Init. De&lay	Time(s)	Stab.(mV/s)
EQDELAY	QUANT	0.00000E+000	Equil. &Time (s)
IRCOMP	SELECTOR	0	IRCom&p
PFCOR	QUANT	5.00000E+001	PF Corr. (ohm)
SAMPLINGMODE	SELECTOR	2	Sampling &Mode
OCVCURVE	TABLE	58
	Pt	T	Vf	Vm	Ach	Over	Temp
	#	s	V vs. Ref.	V	V	bits	deg C
	0	0.258333	2.64980E-001	2.64980E-001	0.00000E+000	...........	1367.91
	1	0.516667	2.64978E-001	2.64914E-001	0.00000E+000	...........	1367.91
	2	0.775	2.64971E-001	2.64855E-001	0.00000E+000	...........	1367.91
	3	1.03333	2.64950E-001	2.64803E-001	0.00000E+000	...........	1367.91
	4	1.29167	2.64912E-001	2.64737E-001	0.00000E+000	...........	1367.91
	5	1.55	2.64861E-001	2.64664E-001	0.00000E+000	...........	1368.00
	6	1.80833	2.64803E-001	2.64602E-001	0.00000E+000	...........	1368.00
	7	2.06667	2.64739E-001	2.64560E-001	0.00000E+000	...........	1368.00
	8	2.325	2.64676E-001	2.64490E-001	0.00000E+000	...........	1367.97
	9	2.58333	2.64615E-001	2.64440E-001	0.00000E+000	...........	1367.83
	10	2.84167	2.64556E-001	2.64377E-001	0.00000E+000	...........	1367.83
	11	3.1	2.64499E-001	2.64310E-001	0.00000E+000	...........	1367.83
	12	3.35833	2.64440E-001	2.64253E-001	0.00000E+000	...........	1367.83
	13	3.61667	2.64380E-001	2.64197E-001	0.00000E+000	...........	1367.83
	14	3.875	2.64319E-001	2.64147E-001	0.00000E+000	...........	1367.83
	15	4.13333	2.64260E-001	2.64071E-001	0.00000E+000	...........	1367.83
	16	4.39167	2.64202E-001	2.64021E-001	0.00000E+000	...........	1367.91
	17	4.65	2.64143E-001	2.63945E-001	0.00000E+000	...........	1367.91
	18	4.90833	2.64082E-001	2.63904E-001	0.00000E+000	...........	1367.91
	19	5.16667	2.64021E-001	2.63832E-001	0.00000E+000	...........	1367.91
	20	5.425	2.63960E-001	2.63771E-001	0.00000E+000	...........	1368.00
	21	5.68333	2.63900E-001	2.63723E-001	0.00000E+000	...........	1368.00
	22	5.94167	2.63839E-001	2.63647E-001	0.00000E+000	...........	1368.00
	23	6.2	2.63779E-001	2.63591E-001	0.00000E+000	...........	1368.00
	24	6.45833	2.63719E-001	2.63531E-001	0.00000E+000	...........	1367.91
	25	6.71667	2.63657E-001	2.63477E-001	0.00000E+000	...........	1367.91
	26	6.975	2.63597E-001	2.63405E-001	0.00000E+000	...........	1367.91
	27	7.23333	2.63537E-001	2.63366E-001	0.00000E+000	...........	1367.91
	28	7.49167	2.63478E-001	2.63313E-001	0.00000E+000	...........	1367.91
	29	7.75	2.63421E-001	2.63244E-001	0.00000E+000	...........	1367.91
	30	8.00833	2.63365E-001	2.63167E-001	0.00000E+000	...........	1367.91
	31	8.26667	2.63307E-001	2.63111E-001	0.00000E+000	...........	1367.91
	32	8.525	2.63245E-001	2.63066E-001	0.00000E+000	...........	1368.00
	33	8.78333	2.63183E-001	2.63014E-001	0.00000E+000	...........	1368.00
	34	9.04167	2.63123E-001	2.62949E-001	0.00000E+000	...........	1368.00
	35	9.3	2.63067E-001	2.62896E-001	0.00000E+000	...........	1368.00
	36	9.5583	2.63012E-001	2.62833E-001	0.00000E+000	...........	1368.00
	37	9.8167	2.62955E-001	2.62773E-001	0.00000E+000	...........	1368.00
	38	10.075	2.62898E-001	2.62725E-001	0.00000E+000	...........	1368.00
	39	10.3333	2.62839E-001	2.62665E-001	0.00000E+000	...........	1367.94
	40	10.5917	2.62782E-001	2.62585E-001	0.00000E+000	...........	1367.83
	41	10.85	2.62723E-001	2.62535E-001	0.00000E+000	...........	1367.83
	42	11.1083	2.62662E-001	2.62466E-001	0.00000E+000	...........	1367.83
	43	11.3667	2.62599E-001	2.62415E-001	0.00000E+000	...........	1367.83
	44	11.625	2.62537E-001	2.62368E-001	0.00000E+000	...........	1367.83
	45	11.8833	2.62478E-001	2.62297E-001	0.00000E+000	...........	1367.83
	46	12.1417	2.62421E-001	2.62245E-001	0.00000E+000	...........	1367.83
	47	12.4	2.62364E-001	2.62183E-001	0.00000E+000	...........	1367.91
	48	12.6583	2.62306E-001	2.62125E-001	0.00000E+000	...........	1367.91
	49	12.9167	2.62248E-001	2.62080E-001	0.00000E+000	...........	1367.91
	50	13.175	2.62190E-001	2.62006E-001	0.00000E+000	...........	1367.91
	51	13.4333	2.62132E-001	2.61936E-001	0.00000E+000	...........	1367.91
	52	13.6917	2.62073E-001	2.61895E-001	0.00000E+000	...........	1367.91
	53	13.95	2.62012E-001	2.61838E-001	0.00000E+000	...........	1367.91
	54	14.2083	2.61953E-001	2.61773E-001	0.00000E+000	...........	1367.91
	55	14.4667	2.61895E-001	2.61706E-001	0.00000E+000	...........	1368.00
	56	14.725	2.61837E-001	2.61663E-001	0.00000E+000	...........	1368.00
	57	14.9833	2.61778E-001	2.61600E-001	0.00000E+000	...........	1368.00
EOC	QUANT	0.2617777	Open Circuit (V)
PSTATMODEL	IQUANT	64	Pstat Model
PSTATSECTION	LABEL	IFC1010-32247	Pstat Section
PSTATSERIALNO	LABEL	32247	Pstat Serial Number
CTRLMODE	IQUANT	1	Control Mode
ELECTROMETER	IQUANT	0	RE=0 or CS=1
IESTAB	IQUANT	2	I/E Stability
CASPEED	IQUANT	4	Control Amp Speed
CONVENTION	IQUANT	1	Current Convention
ICHRANGE	IQUANT	2	Ich Range
ICHRANGEMODE	TOGGLE	F	Ich Auto Range
ICHOFFSETENABLE	TOGGLE	F	Ich Offset Enable
ICHOFFSET	QUANT	0	Ich Offset (V)
ICHFILTER	IQUANT	3	Ich Filter
VCHRANGE	IQUANT	2	Vch Range
VCHRANGEMODE	TOGGLE	F	Vch Auto Range
VCHOFFSETENABLE	TOGGLE	F	Vch Offset Enable
VCHOFFSET	QUANT	0	Vch Offset (V)
VCHFILTER	IQUANT	3	Vch Filter
IERANGELOWERLIMIT	IQUANT	4	I/E Range Lower Limit
IERANGEMODE	TOGGLE	F	I/E AutoRange
IERANGE	IQUANT	8	I/E Range
ACHSELECT	IQUANT	0	Ach Select
ACHRANGE	IQUANT	2	Ach Range
ACHOFFSETENABLE	TOGGLE	F	Ach Offset Enable
ACHOFFSET	QUANT	0	Ach Offset (V)
ACHFILTER	IQUANT	1	Ach Filter
SENSECABLEID	IQUANT	14	Sense Cable ID
PWRCABLEID	IQUANT	14	Power Cable ID
DCCALDATE	LABEL	11/18/2024	DC Calibration Date
ACCALDATE	LABEL	4/18/2022	AC Calibration Date
FRAMEWORKVERSION	LABEL	7.10.3	Framework Version
INSTRUMENTVERSION	LABEL	4.91	Instrument Version
COMMVERSION	LABEL	3.10	Communications Version
CPUPLDVERSION	LABEL	2.22	CPU PLD Version
CTRLPLDVERSION	LABEL	0.00	CTRL PLD Version
PSTATPLDVERSION	LABEL	0.00	PSTAT PLD Version
CURVE1	TABLE
	Pt	T	Vf	Im	Vu	Sig	Ach	IERange	Over	Temp
	#	s	V vs. Ref.	A	V	V	V	#	bits	deg C
	0	0.02	2.61814E-001	2.22635E-008	0.00000E+000	2.61782E-001	0.00000E+000	8	...........	1367.91
	3	0.08	2.31951E-001	-3.16368E-006	0.00000E+000	2.31790E-001	0.00000E+000	8	...........	1367.91
	6	0.14	2.01933E-001	-3.20359E-006	0.00000E+000	2.01797E-001	0.00000E+000	8	...........	1367.91
	9	0.2	1.71884E-001	-3.10045E-006	0.00000E+000	1.71755E-001	0.00000E+000	8	...........	1367.91
	12	0.26	1.41909E-001	-2.91302E-006	0.00000E+000	1.41763E-001	0.00000E+000	8	...........	1367.91
	15	0.32	1.11908E-001	-2.83809E-006	0.00000E+000	1.11770E-001	0.00000E+000	8	...........	1367.91
	18	0.38	8.19150E-002	-2.84682E-006	0.00000E+000	8.17780E-002	0.00000E+000	8	...........	1367.91
[...]
	804	16.1	6.20177E-001	-2.85751E-006	0.00000E+000	6.19990E-001	0.00000E+000	8	...........	1366.79
	805	16.12	6.10178E-001	-2.91098E-006	0.00000E+000	6.09993E-001	0.00000E+000	8	...........	1366.79
	806	16.14	6.00160E-001	-2.96525E-006	0.00000E+000	5.99995E-001	0.00000E+000	8	...........	1366.79
	807	16.16	5.90184E-001	-3.01809E-006	0.00000E+000	5.89998E-001	0.00000E+000	8	...........	1366.79
	808	16.18	5.80181E-001	-3.07511E-006	0.00000E+000	5.80001E-001	0.00000E+000	8	...........	1366.79
	809	16.2	5.70185E-001	-3.13536E-006	0.00000E+000	5.70003E-001	0.00000E+000	8	...........	1366.79
	810	16.22	5.60177E-001	-3.19740E-006	0.00000E+000	5.60006E-001	0.00000E+000	8	...........	1366.79
	811	16.24	5.50190E-001	-3.26287E-006	0.00000E+000	5.50008E-001	0.00000E+000	8	...........	1366.79
	812	16.26	5.40189E-001	-3.33042E-006	0.00000E+000	5.40011E-001	0.00000E+000	8	...........	1366.79
	813	16.28	5.30193E-001	-3.40315E-006	0.00000E+000	5.30013E-001	0.00000E+000	8	...........	1366.79
	814	16.3	5.20198E-001	-3.48083E-006	0.00000E+000	5.20016E-001	0.00000E+000	8	...........	1366.79
	815	16.32	5.10187E-001	-3.56035E-006	0.00000E+000	5.10018E-001	0.00000E+000	8	...........	1366.79
	816	16.34	5.00218E-001	-3.64037E-006	0.00000E+000	5.00021E-001	0.00000E+000	8	...........	1366.79
	817	16.36	4.90226E-001	-3.73066E-006	0.00000E+000	4.90024E-001	0.00000E+000	8	...........	1366.79
	818	16.38	4.80172E-001	-3.83736E-006	0.00000E+000	4.79976E-001	0.00000E+000	8	...........	1366.79
	819	16.4	4.70156E-001	-3.91431E-006	0.00000E+000	4.69979E-001	0.00000E+000	8	...........	1366.79
	820	16.42	4.60162E-001	-4.00874E-006	0.00000E+000	4.59981E-001	0.00000E+000	8	...........	1366.79
	821	16.44	4.50168E-001	-4.09783E-006	0.00000E+000	4.49984E-001	0.00000E+000	8	...........	1366.79
	822	16.46	4.40167E-001	-4.19048E-006	0.00000E+000	4.39986E-001	0.00000E+000	8	...........	1366.79
	823	16.48	4.30167E-001	-4.27950E-006	0.00000E+000	4.29989E-001	0.00000E+000	8	...........	1366.79
	824	16.5	4.20167E-001	-4.36755E-006	0.00000E+000	4.19991E-001	0.00000E+000	8	...........	1366.79
	825	16.52	4.10173E-001	-4.45101E-006	0.00000E+000	4.09994E-001	0.00000E+000	8	...........	1366.79
	826	16.54	4.00167E-001	-4.52520E-006	0.00000E+000	3.99997E-001	0.00000E+000	8	...........	1366.79
	827	16.56	3.90171E-001	-4.59915E-006	0.00000E+000	3.89999E-001	0.00000E+000	8	...........	1366.79
	828	16.58	3.80161E-001	-4.65084E-006	0.00000E+000	3.80002E-001	0.00000E+000	8	...........	1366.79
	829	16.6	3.70168E-001	-4.66565E-006	0.00000E+000	3.70004E-001	0.00000E+000	8	...........	1366.79
	830	16.62	3.60173E-001	-4.64020E-006	0.00000E+000	3.60007E-001	0.00000E+000	8	...........	1366.79
	831	16.64	3.50176E-001	-4.61390E-006	0.00000E+000	3.50009E-001	0.00000E+000	8	...........	1366.79
	832	16.66	3.40172E-001	-4.60240E-006	0.00000E+000	3.40012E-001	0.00000E+000	8	...........	1366.79
	833	16.68	3.30166E-001	-4.60003E-006	0.00000E+000	3.30014E-001	0.00000E+000	8	...........	1366.79
	834	16.7	3.20178E-001	-4.59775E-006	0.00000E+000	3.20017E-001	0.00000E+000	8	...........	1366.79
	835	16.72	3.10184E-001	-4.59098E-006	0.00000E+000	3.10020E-001	0.00000E+000	8	...........	1366.79
	836	16.74	3.00178E-001	-4.57534E-006	0.00000E+000	3.00022E-001	0.00000E+000	8	...........	1366.79
	837	16.76	2.90186E-001	-4.56444E-006	0.00000E+000	2.90025E-001	0.00000E+000	8	...........	1366.79
	838	16.78	2.80139E-001	-4.55710E-006	0.00000E+000	2.79977E-001	0.00000E+000	8	...........	1366.79
	839	16.8	2.70141E-001	-4.50736E-006	0.00000E+000	2.69980E-001	0.00000E+000	8	...........	1366.79
	840	16.82	2.60138E-001	-4.47269E-006	0.00000E+000	2.59982E-001	0.00000E+000	8	...........	1366.79

File: 20250424_F_CHI105_2mmAu_E000_PBSarg_CV5000.DTA
EXPLAIN
TAG	CV
TITLE	LABEL	Cyclic Voltammetry	Test &Identifier
DATE	LABEL	4/24/2025	Date
TIME	LABEL	17:00:35	Time
NOTES	NOTES	3	&Notes...

PSTAT	PSTAT	IFC1010-32247	Potentiostat
VINIT	POTEN	0.00000E+000	T	Initial &E (V)
VLIMIT1	POTEN	-6.00000E-001	F	Scan Limit &1 (V)
VLIMIT2	POTEN	8.00000E-001	F	Scan Limit &2 (V)
VFINAL	POTEN	0.00000E+000	T	Final &E (V)
SCANRATE	QUANT	4.99999E+003	&Scan Rate (mV/s)
STEPSIZE	QUANT	1.00000E+001	St&ep Size (mV)
CYCLES	IQUANT	3	C&ycles (#)
IMODE	SELECTOR	1	I/E Range &Mode
IRANGE	QUANT	1.00000E-002	&Max Current (mA)
AREA	QUANT	1.00000E+000	Electrode &Area (cm^2)
ELECTRODETYPE	SELECTOR	0	Electrode Type
STRIPPING	TOGGLE	F	Used for Stripping
CONDIT	TWOPARAM	F	1.50000E+001	0.00000E+000	Conditionin&g	Time(s)	E(V)
DELAY	TWOPARAM	T	1.50000E+001	0.00000E+000	Init. De&lay	Time(s)	Stab.(mV/s)
EQDELAY	QUANT	0.00000E+000	Equil. &Time (s)
IRCOMP	SELECTOR	0	IRCom&p
PFCOR	QUANT	5.00000E+001	PF Corr. (ohm)
SAMPLINGMODE	SELECTOR	2	Sampling &Mode
OCVCURVE	TABLE	58
	Pt	T	Vf	Vm	Ach	Over	Temp
	#	s	V vs. Ref.	V	V	bits	deg C
	0	0.258333	2.76920E-001	2.76920E-001	0.00000E+000	...........	1367.91
	1	0.516667	2.76919E-001	2.76858E-001	0.00000E+000	...........	1367.91
	2	0.775	2.76911E-001	2.76781E-001	0.00000E+000	...........	1367.91
	3	1.03333	2.76889E-001	2.76709E-001	0.00000E+000	...........	1367.60
	4	1.29167	2.76846E-001	2.76638E-001	0.00000E+000	...........	1367.57
	5	1.55	2.76787E-001	2.76585E-001	0.00000E+000	...........	1367.57
	6	1.80833	2.76719E-001	2.76501E-001	0.00000E+000	...........	1367.57
	7	2.06667	2.76650E-001	2.76439E-001	0.00000E+000	...........	1367.91
	8	2.325	2.76581E-001	2.76379E-001	0.00000E+000	...........	1367.91
	9	2.58333	2.76513E-001	2.76312E-001	0.00000E+000	...........	1367.91
	10	2.84167	2.76447E-001	2.76247E-001	0.00000E+000	...........	1367.91
	11	3.1	2.76381E-001	2.76172E-001	0.00000E+000	...........	1368.00
	12	3.35833	2.76316E-001	2.76111E-001	0.00000E+000	...........	1368.00
	13	3.61667	2.76249E-001	2.76050E-001	0.00000E+000	...........	1368.00
	14	3.875	2.76182E-001	2.75978E-001	0.00000E+000	...........	1368.00
	15	4.13333	2.76116E-001	2.75912E-001	0.00000E+000	...........	1368.00
	16	4.39167	2.76051E-001	2.75852E-001	0.00000E+000	...........	1368.00
	17	4.65	2.75985E-001	2.75796E-001	0.00000E+000	...........	1368.00
	18	4.90833	2.75921E-001	2.75726E-001	0.00000E+000	...........	1368.00
	19	5.16667	2.75858E-001	2.75662E-001	0.00000E+000	...........	1368.00
	20	5.425	2.75795E-001	2.75584E-001	0.00000E+000	...........	1368.00
	21	5.68333	2.75730E-001	2.75523E-001	0.00000E+000	...........	1368.00
	22	5.94167	2.75663E-001	2.75469E-001	0.00000E+000	...........	1368.00
	23	6.2	2.75596E-001	2.75388E-001	0.00000E+000	...........	1368.00
	24	6.45833	2.75530E-001	2.75328E-001	0.00000E+000	...........	1368.00
	25	6.71667	2.75465E-001	2.75265E-001	0.00000E+000	...........	1368.00
	26	6.975	2.75399E-001	2.75212E-001	0.00000E+000	...........	1368.00
	27	7.23333	2.75335E-001	2.75136E-001	0.00000E+000	...........	1368.00
	28	7.49167	2.75272E-001	2.75079E-001	0.00000E+000	...........	1368.00
	29	7.75	2.75209E-001	2.75011E-001	0.00000E+000	...........	1368.00
	30	8.00833	2.75146E-001	2.74955E-001	0.00000E+000	...........	1368.00
	31	8.26667	2.75082E-001	2.74890E-001	0.00000E+000	...........	1368.00
	32	8.525	2.75020E-001	2.74841E-001	0.00000E+000	...........	1368.00
	33	8.78333	2.74958E-001	2.74765E-001	0.00000E+000	...........	1368.00
	34	9.04167	2.74898E-001	2.74709E-001	0.00000E+000	...........	1367.83
	35	9.3	2.74836E-001	2.74608E-001	0.00000E+000	...........	1367.83
	36	9.5583	2.74771E-001	2.74557E-001	0.00000E+000	...........	1367.83
	37	9.8167	2.74701E-001	2.74491E-001	0.00000E+000	...........	1367.83
	38	10.075	2.74631E-001	2.74433E-001	0.00000E+000	...........	1367.91
	39	10.3333	2.74563E-001	2.74365E-001	0.00000E+000	...........	1367.91
	40	10.5917	2.74497E-001	2.74290E-001	0.00000E+000	...........	1367.91
	41	10.85	2.74433E-001	2.74243E-001	0.00000E+000	...........	1367.91
	42	11.1083	2.74369E-001	2.74182E-001	0.00000E+000	...........	1368.00
	43	11.3667	2.74305E-001	2.74097E-001	0.00000E+000	...........	1368.00
	44	11.625	2.74242E-001	2.74042E-001	0.00000E+000	...........	1368.00
	45	11.8833	2.74178E-001	2.73984E-001	0.00000E+000	...........	1368.00
	46	12.1417	2.74113E-001	2.73938E-001	0.00000E+000	...........	1368.00
	47	12.4	2.74051E-001	2.73867E-001	0.00000E+000	...........	1368.00
	48	12.6583	2.73991E-001	2.73795E-001	0.00000E+000	...........	1368.00
	49	12.9167	2.73932E-001	2.73735E-001	0.00000E+000	...........	1368.00
	50	13.175	2.73869E-001	2.73676E-001	0.00000E+000	...........	1367.91
	51	13.4333	2.73806E-001	2.73628E-001	0.00000E+000	...........	1367.91
	52	13.6917	2.73744E-001	2.73558E-001	0.00000E+000	...........	1367.91
	53	13.95	2.73684E-001	2.73500E-001	0.00000E+000	...........	1367.91
	54	14.2083	2.73624E-001	2.73424E-001	0.00000E+000	...........	1368.00
	55	14.4667	2.73564E-001	2.73380E-001	0.00000E+000	...........	1368.00
	56	14.725	2.73501E-001	2.73308E-001	0.00000E+000	...........	1368.00
	57	14.9833	2.73439E-001	2.73242E-001	0.00000E+000	...........	1368.00
EOC	QUANT	0.2734389	Open Circuit (V)
PSTATMODEL	IQUANT	64	Pstat Model
PSTATSECTION	LABEL	IFC1010-32247	Pstat Section
PSTATSERIALNO	LABEL	32247	Pstat Serial Number
CTRLMODE	IQUANT	1	Control Mode
ELECTROMETER	IQUANT	0	RE=0 or CS=1
IESTAB	IQUANT	2	I/E Stability
CASPEED	IQUANT	4	Control Amp Speed
CONVENTION	IQUANT	1	Current Convention
ICHRANGE	IQUANT	2	Ich Range
ICHRANGEMODE	TOGGLE	F	Ich Auto Range
ICHOFFSETENABLE	TOGGLE	F	Ich Offset Enable
ICHOFFSET	QUANT	0	Ich Offset (V)
ICHFILTER	IQUANT	3	Ich Filter
VCHRANGE	IQUANT	2	Vch Range
VCHRANGEMODE	TOGGLE	F	Vch Auto Range
VCHOFFSETENABLE	TOGGLE	F	Vch Offset Enable
VCHOFFSET	QUANT	0	Vch Offset (V)
VCHFILTER	IQUANT	3	Vch Filter
IERANGELOWERLIMIT	IQUANT	4	I/E Range Lower Limit
IERANGEMODE	TOGGLE	F	I/E AutoRange
IERANGE	IQUANT	8	I/E Range
ACHSELECT	IQUANT	0	Ach Select
ACHRANGE	IQUANT	2	Ach Range
ACHOFFSETENABLE	TOGGLE	F	Ach Offset Enable
ACHOFFSET	QUANT	0	Ach Offset (V)
ACHFILTER	IQUANT	1	Ach Filter
SENSECABLEID	IQUANT	14	Sense Cable ID
PWRCABLEID	IQUANT	14	Power Cable ID
DCCALDATE	LABEL	11/18/2024	DC Calibration Date
ACCALDATE	LABEL	4/18/2022	AC Calibration Date
FRAMEWORKVERSION	LABEL	7.10.3	Framework Version
INSTRUMENTVERSION	LABEL	4.91	Instrument Version
COMMVERSION	LABEL	3.10	Communications Version
CPUPLDVERSION	LABEL	2.22	CPU PLD Version
CTRLPLDVERSION	LABEL	0.00	CTRL PLD Version
PSTATPLDVERSION	LABEL	0.00	PSTAT PLD Version
CURVE1	TABLE
	Pt	T	Vf	Im	Vu	Sig	Ach	IERange	Over	Temp
	#	s	V vs. Ref.	A	V	V	V	#	bits	deg C
	0	0.002	2.73450E-001	2.54314E-007	0.00000E+000	2.73429E-001	0.00000E+000	8	...........	1367.57
	3	0.008	2.44630E-001	-2.86672E-005	0.00000E+000	2.43437E-001	0.00000E+000	8	...........	1367.57
	6	0.014	2.14633E-001	-2.92736E-005	0.00000E+000	2.13444E-001	0.00000E+000	8	...........	1367.57
	9	0.02	1.84653E-001	-2.89389E-005	0.00000E+000	1.83452E-001	0.00000E+000	8	...........	1367.57
	12	0.026	1.54659E-001	-2.82419E-005	0.00000E+000	1.53460E-001	0.00000E+000	8	...........	1367.57
	15	0.032	1.24620E-001	-2.66113E-005	0.00000E+000	1.23417E-001	0.00000E+000	8	...........	1367.57
	18	0.038	9.46345E-002	-2.58094E-005	0.00000E+000	9.34251E-002	0.00000E+000	8	...........	1367.57
[...]
	804	1.61	6.31269E-001	-2.37740E-005	0.00000E+000	6.29988E-001	0.00000E+000	8	...........	1367.91
	805	1.612	6.21257E-001	-2.43671E-005	0.00000E+000	6.19990E-001	0.00000E+000	8	...........	1367.91
	806	1.614	6.11269E-001	-2.48374E-005	0.00000E+000	6.09993E-001	0.00000E+000	8	...........	1367.91
	807	1.616	6.01272E-001	-2.52889E-005	0.00000E+000	5.99995E-001	0.00000E+000	8	...........	1367.91
	808	1.618	5.91278E-001	-2.57081E-005	0.00000E+000	5.89998E-001	0.00000E+000	8	...........	1367.91
	809	1.62	5.81281E-001	-2.61527E-005	0.00000E+000	5.80001E-001	0.00000E+000	8	...........	1367.91
	810	1.622	5.71282E-001	-2.66113E-005	0.00000E+000	5.70003E-001	0.00000E+000	8	...........	1367.91
	811	1.624	5.61274E-001	-2.70885E-005	0.00000E+000	5.60006E-001	0.00000E+000	8	...........	1367.91
	812	1.626	5.51279E-001	-2.75970E-005	0.00000E+000	5.50008E-001	0.00000E+000	8	...........	1367.91
	813	1.628	5.41281E-001	-2.81321E-005	0.00000E+000	5.40011E-001	0.00000E+000	8	...........	1367.91
	814	1.63	5.31274E-001	-2.87208E-005	0.00000E+000	5.30013E-001	0.00000E+000	8	...........	1367.91
	815	1.632	5.21282E-001	-2.93539E-005	0.00000E+000	5.20016E-001	0.00000E+000	8	...........	1367.91
	816	1.634	5.11265E-001	-3.00430E-005	0.00000E+000	5.10018E-001	0.00000E+000	8	...........	1367.91
	817	1.636	5.01292E-001	-3.07406E-005	0.00000E+000	5.00021E-001	0.00000E+000	8	...........	1367.91
	818	1.638	4.91312E-001	-3.15334E-005	0.00000E+000	4.90024E-001	0.00000E+000	8	...........	1367.91
	819	1.64	4.81251E-001	-3.24678E-005	0.00000E+000	4.79976E-001	0.00000E+000	8	...........	1367.91
	820	1.642	4.71230E-001	-3.32258E-005	0.00000E+000	4.69979E-001	0.00000E+000	8	...........	1367.91
	821	1.644	4.61238E-001	-3.40725E-005	0.00000E+000	4.59981E-001	0.00000E+000	8	...........	1367.91
	822	1.646	4.51233E-001	-3.49351E-005	0.00000E+000	4.49984E-001	0.00000E+000	8	...........	1367.91
	823	1.648	4.41235E-001	-3.58296E-005	0.00000E+000	4.39986E-001	0.00000E+000	8	...........	1367.91
	824	1.65	4.31238E-001	-3.67024E-005	0.00000E+000	4.29989E-001	0.00000E+000	8	...........	1367.91
	825	1.652	4.21237E-001	-3.75772E-005	0.00000E+000	4.19991E-001	0.00000E+000	8	...........	1367.91
	826	1.654	4.11242E-001	-3.84236E-005	0.00000E+000	4.09994E-001	0.00000E+000	8	...........	1367.91
	827	1.656	4.01254E-001	-3.92051E-005	0.00000E+000	3.99997E-001	0.00000E+000	8	...........	1367.91
	828	1.658	3.91241E-001	-3.99672E-005	0.00000E+000	3.89999E-001	0.00000E+000	8	...........	1367.91
	829	1.66	3.81244E-001	-4.06018E-005	0.00000E+000	3.80002E-001	0.00000E+000	8	...........	1367.91
	830	1.662	3.71234E-001	-4.10102E-005	0.00000E+000	3.70004E-001	0.00000E+000	8	...........	1367.91
	831	1.664	3.61240E-001	-4.11447E-005	0.00000E+000	3.60007E-001	0.00000E+000	8	...........	1367.91
	832	1.666	3.51248E-001	-4.11153E-005	0.00000E+000	3.50009E-001	0.00000E+000	8	...........	1367.91
	833	1.668	3.41247E-001	-4.10768E-005	0.00000E+000	3.40012E-001	0.00000E+000	8	...........	1367.91
	834	1.67	3.31242E-001	-4.10954E-005	0.00000E+000	3.30014E-001	0.00000E+000	8	...........	1367.91
	835	1.672	3.21261E-001	-4.11094E-005	0.00000E+000	3.20017E-001	0.00000E+000	8	...........	1367.91
	836	1.674	3.11257E-001	-4.11046E-005	0.00000E+000	3.10020E-001	0.00000E+000	8	...........	1367.91
	837	1.676	3.01260E-001	-4.10368E-005	0.00000E+000	3.00022E-001	0.00000E+000	8	...........	1367.91
	838	1.678	2.91267E-001	-4.09668E-005	0.00000E+000	2.90025E-001	0.00000E+000	8	...........	1367.91
	839	1.68	2.81224E-001	-4.09584E-005	0.00000E+000	2.79977E-001	0.00000E+000	8	...........	1367.91
	840	1.682	2.71220E-001	-4.05923E-005	0.00000E+000	2.69980E-001	0.00000E+000	8	...........	1367.91