Folder: EchemAnalysis_MATLAB/Test_Data_Files (part 5)

File: 20250424_M_CHI105_12,5umAu_E000_PBSarg_CV5000.DTA
EXPLAIN
TAG	CV
TITLE	LABEL	Cyclic Voltammetry	Test &Identifier
DATE	LABEL	4/24/2025	Date
TIME	LABEL	13:30:35	Time
NOTES	NOTES	3	&Notes...

PSTAT	PSTAT	IFC1010-32247	Potentiostat
VINIT	POTEN	0.00000E+000	T	Initial &E (V)
VLIMIT1	POTEN	-6.00000E-001	F	Scan Limit &1 (V)
VLIMIT2	POTEN	8.00000E-001	F	Scan Limit &2 (V)
VFINAL	POTEN	0.00000E+000	T	Final &E (V)
SCANRATE	QUANT	4.99999E+003	&Scan Rate (mV/s)
STEPSIZE	QUANT	1.00000E+001	St&ep Size (mV)
CYCLES	IQUANT	3	C&ycles (#)
IMODE	SELECTOR	1	I/E Range &Mode
IRANGE	QUANT	1.00000E-006	&Max Current (mA)
AREA	QUANT	1.00000E+000	Electrode &Area (cm^2)
ELECTRODETYPE	SELECTOR	0	Electrode Type
STRIPPING	TOGGLE	F	Used for Stripping
CONDIT	TWOPARAM	F	1.50000E+001	0.00000E+000	Conditionin&g	Time(s)	E(V)
DELAY	TWOPARAM	T	1.50000E+001	0.00000E+000	Init. De&lay	Time(s)	Stab.(mV/s)
EQDELAY	QUANT	0.00000E+000	Equil. &Time (s)
IRCOMP	SELECTOR	0	IRCom&p
PFCOR	QUANT	5.00000E+001	PF Corr. (ohm)
SAMPLINGMODE	SELECTOR	2	Sampling &Mode
OCVCURVE	TABLE	58
	Pt	T	Vf	Vm	Ach	Over	Temp
	#	s	V vs. Ref.	V	V	bits	deg C
	0	0.258333	7.69332E-001	7.69332E-001	0.00000E+000	...........	1367.65
	1	0.516667	7.69333E-001	7.69391E-001	0.00000E+000	...........	1367.41
	2	0.775	7.69340E-001	7.69443E-001	0.00000E+000	...........	1367.22
	3	1.03333	7.69363E-001	7.69683E-001	0.00000E+000	...........	1367.22
	4	1.29167	7.69417E-001	7.69800E-001	0.00000E+000	...........	1367.22
	5	1.55	7.69512E-001	7.69964E-001	0.00000E+000	...........	1367.57
	6	1.80833	7.69642E-001	7.70062E-001	0.00000E+000	...........	1367.57
	7	2.06667	7.69783E-001	7.70106E-001	0.00000E+000	...........	1367.57
	8	2.325	7.69913E-001	7.70135E-001	0.00000E+000	...........	1367.57
	9	2.58333	7.70015E-001	7.70171E-001	0.00000E+000	...........	1367.65
	10	2.84167	7.70087E-001	7.70280E-001	0.00000E+000	...........	1367.65
	11	3.1	7.70142E-001	7.70256E-001	0.00000E+000	...........	1367.65
	12	3.35833	7.70188E-001	7.70208E-001	0.00000E+000	...........	1367.65
	13	3.61667	7.70220E-001	7.70197E-001	0.00000E+000	...........	1367.65
	14	3.875	7.70232E-001	7.70266E-001	0.00000E+000	...........	1367.65
	15	4.13333	7.70235E-001	7.70439E-001	0.00000E+000	...........	1367.65
	16	4.39167	7.70258E-001	7.70571E-001	0.00000E+000	...........	1367.65
	17	4.65	7.70324E-001	7.70840E-001	0.00000E+000	...........	1367.65
	18	4.90833	7.70442E-001	7.71009E-001	0.00000E+000	...........	1367.65
	19	5.16667	7.70602E-001	7.71061E-001	0.00000E+000	...........	1367.65
	20	5.425	7.70775E-001	7.71176E-001	0.00000E+000	...........	1367.65
	21	5.68333	7.70931E-001	7.71280E-001	0.00000E+000	...........	1367.65
	22	5.94167	7.71059E-001	7.71312E-001	0.00000E+000	...........	1367.65
	23	6.2	7.71165E-001	7.71525E-001	0.00000E+000	...........	1367.65
	24	6.45833	7.71267E-001	7.71832E-001	0.00000E+000	...........	1367.65
	25	6.71667	7.71397E-001	7.72114E-001	0.00000E+000	...........	1367.65
	26	6.975	7.71579E-001	7.72341E-001	0.00000E+000	...........	1367.65
	27	7.23333	7.71808E-001	7.72522E-001	0.00000E+000	...........	1367.65
	28	7.49167	7.72053E-001	7.72676E-001	0.00000E+000	...........	1367.65
	29	7.75	7.72282E-001	7.72813E-001	0.00000E+000	...........	1367.65
	30	8.00833	7.72483E-001	7.73001E-001	0.00000E+000	...........	1367.65
	31	8.26667	7.72656E-001	7.73044E-001	0.00000E+000	...........	1367.65
	32	8.525	7.72807E-001	7.73114E-001	0.00000E+000	...........	1367.47
	33	8.78333	7.72932E-001	7.73198E-001	0.00000E+000	...........	1367.40
	34	9.04167	7.73033E-001	7.73263E-001	0.00000E+000	...........	1367.40
	35	9.3	7.73114E-001	7.73280E-001	0.00000E+000	...........	1367.40
	36	9.5583	7.73181E-001	7.73277E-001	0.00000E+000	...........	1367.57
	37	9.8167	7.73230E-001	7.73237E-001	0.00000E+000	...........	1367.57
	38	10.075	7.73258E-001	7.73326E-001	0.00000E+000	...........	1367.57
	39	10.3333	7.73274E-001	7.73413E-001	0.00000E+000	...........	1367.57
	40	10.5917	7.73296E-001	7.73503E-001	0.00000E+000	...........	1367.65
	41	10.85	7.73343E-001	7.73645E-001	0.00000E+000	...........	1367.65
	42	11.1083	7.73415E-001	7.73655E-001	0.00000E+000	...........	1367.65
	43	11.3667	7.73498E-001	7.73558E-001	0.00000E+000	...........	1367.65
	44	11.625	7.73563E-001	7.73480E-001	0.00000E+000	...........	1367.65
	45	11.8833	7.73584E-001	7.73458E-001	0.00000E+000	...........	1367.65
	46	12.1417	7.73560E-001	7.73370E-001	0.00000E+000	...........	1367.65
	47	12.4	7.73512E-001	7.73470E-001	0.00000E+000	...........	1367.65
	48	12.6583	7.73469E-001	7.73546E-001	0.00000E+000	...........	1367.65
	49	12.9167	7.73456E-001	7.73643E-001	0.00000E+000	...........	1367.65
	50	13.175	7.73484E-001	7.73712E-001	0.00000E+000	...........	1367.65
	51	13.4333	7.73546E-001	7.73806E-001	0.00000E+000	...........	1367.65
	52	13.6917	7.73621E-001	7.73704E-001	0.00000E+000	...........	1367.65
	53	13.95	7.73688E-001	7.73780E-001	0.00000E+000	...........	1367.65
	54	14.2083	7.73731E-001	7.73787E-001	0.00000E+000	...........	1367.65
	55	14.4667	7.73756E-001	7.73889E-001	0.00000E+000	...........	1367.65
	56	14.725	7.73785E-001	7.74128E-001	0.00000E+000	...........	1367.65
	57	14.9833	7.73843E-001	7.74207E-001	0.00000E+000	...........	1367.65
EOC	QUANT	0.7738429	Open Circuit (V)
PSTATMODEL	IQUANT	64	Pstat Model
PSTATSECTION	LABEL	IFC1010-32247	Pstat Section
PSTATSERIALNO	LABEL	32247	Pstat Serial Number
CTRLMODE	IQUANT	1	Control Mode
ELECTROMETER	IQUANT	0	RE=0 or CS=1
IESTAB	IQUANT	2	I/E Stability
CASPEED	IQUANT	4	Control Amp Speed
CONVENTION	IQUANT	1	Current Convention
ICHRANGE	IQUANT	2	Ich Range
ICHRANGEMODE	TOGGLE	F	Ich Auto Range
ICHOFFSETENABLE	TOGGLE	F	Ich Offset Enable
ICHOFFSET	QUANT	0	Ich Offset (V)
ICHFILTER	IQUANT	3	Ich Filter
VCHRANGE	IQUANT	2	Vch Range
VCHRANGEMODE	TOGGLE	F	Vch Auto Range
VCHOFFSETENABLE	TOGGLE	F	Vch Offset Enable
VCHOFFSET	QUANT	0	Vch Offset (V)
VCHFILTER	IQUANT	3	Vch Filter
IERANGELOWERLIMIT	IQUANT	4	I/E Range Lower Limit
IERANGEMODE	TOGGLE	F	I/E AutoRange
IERANGE	IQUANT	4	I/E Range
ACHSELECT	IQUANT	0	Ach Select
ACHRANGE	IQUANT	2	Ach Range
ACHOFFSETENABLE	TOGGLE	F	Ach Offset Enable
ACHOFFSET	QUANT	0	Ach Offset (V)
ACHFILTER	IQUANT	1	Ach Filter
SENSECABLEID	IQUANT	14	Sense Cable ID
PWRCABLEID	IQUANT	14	Power Cable ID
DCCALDATE	LABEL	11/18/2024	DC Calibration Date
ACCALDATE	LABEL	4/18/2022	AC Calibration Date
FRAMEWORKVERSION	LABEL	7.10.3	Framework Version
INSTRUMENTVERSION	LABEL	4.91	Instrument Version
COMMVERSION	LABEL	3.10	Communications Version
CPUPLDVERSION	LABEL	2.22	CPU PLD Version
CTRLPLDVERSION	LABEL	0.00	CTRL PLD Version
PSTATPLDVERSION	LABEL	0.00	PSTAT PLD Version
CURVE1	TABLE
	Pt	T	Vf	Im	Vu	Sig	Ach	IERange	Over	Temp
	#	s	V vs. Ref.	A	V	V	V	#	bits	deg C
	0	0.002	7.73929E-001	-1.58098E-012	0.00000E+000	7.73851E-001	0.00000E+000	4	...........	1367.57
	3	0.008	7.45125E-001	-4.75329E-011	0.00000E+000	7.43859E-001	0.00000E+000	4	...........	1367.57
	6	0.014	7.15133E-001	-9.90853E-011	0.00000E+000	7.13866E-001	0.00000E+000	4	...........	1367.57
	9	0.02	6.85071E-001	-1.61757E-010	0.00000E+000	6.83824E-001	0.00000E+000	4	...........	1367.57
	12	0.026	6.55082E-001	-2.40831E-010	0.00000E+000	6.53832E-001	0.00000E+000	4	...........	1367.57
	15	0.032	6.25092E-001	-3.27273E-010	0.00000E+000	6.23839E-001	0.00000E+000	4	...........	1367.57
	18	0.038	5.95101E-001	-4.11641E-010	0.00000E+000	5.93847E-001	0.00000E+000	4	...........	1367.57
[...]
	741	1.484	-1.61183E-001	5.62170E-010	0.00000E+000	-1.60010E-001	0.00000E+000	4	...........	1367.57
	744	1.49	-1.31203E-001	6.06678E-010	0.00000E+000	-1.30018E-001	0.00000E+000	4	...........	1367.57
	747	1.496	-1.01157E-001	6.42578E-010	0.00000E+000	-9.99754E-002	0.00000E+000	4	...........	1367.57
	750	1.502	-7.11524E-002	6.71100E-010	0.00000E+000	-6.99831E-002	0.00000E+000	4	...........	1367.57
	753	1.508	-4.11603E-002	6.94035E-010	0.00000E+000	-3.99908E-002	0.00000E+000	4	...........	1367.57
	756	1.514	-1.11708E-002	7.14120E-010	0.00000E+000	-9.99847E-003	0.00000E+000	4	...........	1367.57
	759	1.52	1.88442E-002	7.32596E-010	0.00000E+000	1.99939E-002	0.00000E+000	4	...........	1367.57
	762	1.526	4.88397E-002	7.52664E-010	0.00000E+000	4.99862E-002	0.00000E+000	4	...........	1367.57
	765	1.532	7.88412E-002	7.76601E-010	0.00000E+000	7.99785E-002	0.00000E+000	4	...........	1367.57
	768	1.538	1.08887E-001	8.03819E-010	0.00000E+000	1.10021E-001	0.00000E+000	4	...........	1367.57
	771	1.544	1.38870E-001	8.35355E-010	0.00000E+000	1.40013E-001	0.00000E+000	4	...........	1367.57
	774	1.55	1.68870E-001	8.73400E-010	0.00000E+000	1.70005E-001	0.00000E+000	4	...........	1367.57
	777	1.556	1.98854E-001	9.17287E-010	0.00000E+000	1.99998E-001	0.00000E+000	4	...........	1367.57
	780	1.562	2.28871E-001	9.71347E-010	0.00000E+000	2.29990E-001	0.00000E+000	4	...........	1367.57
	783	1.568	2.58874E-001	1.04083E-009	0.00000E+000	2.59982E-001	0.00000E+000	4	...........	1367.57
	786	1.574	2.88910E-001	1.11764E-009	0.00000E+000	2.90025E-001	0.00000E+000	4	...........	1367.57
	789	1.58	3.18903E-001	1.18509E-009	0.00000E+000	3.20017E-001	0.00000E+000	4	...........	1367.57
	792	1.586	3.48903E-001	1.24447E-009	0.00000E+000	3.50009E-001	0.00000E+000	4	...........	1367.57
	795	1.592	3.78898E-001	1.29412E-009	0.00000E+000	3.80002E-001	0.00000E+000	4	...........	1367.57
	798	1.598	4.08898E-001	1.33254E-009	0.00000E+000	4.09994E-001	0.00000E+000	4	...........	1367.57
	801	1.604	4.38890E-001	1.35868E-009	0.00000E+000	4.39986E-001	0.00000E+000	4	...........	1367.57
	804	1.61	4.68883E-001	1.36845E-009	0.00000E+000	4.69979E-001	0.00000E+000	4	...........	1367.57
	807	1.616	4.98943E-001	1.36129E-009	0.00000E+000	5.00021E-001	0.00000E+000	4	...........	1367.57
	810	1.622	5.28925E-001	1.34115E-009	0.00000E+000	5.30013E-001	0.00000E+000	4	...........	1367.57
	813	1.628	5.58920E-001	1.31229E-009	0.00000E+000	5.60006E-001	0.00000E+000	4	...........	1367.57
	816	1.634	5.88930E-001	1.27770E-009	0.00000E+000	5.89998E-001	0.00000E+000	4	...........	1367.57
	819	1.64	6.18898E-001	1.24181E-009	0.00000E+000	6.19990E-001	0.00000E+000	4	...........	1367.57
	822	1.646	6.48905E-001	1.20808E-009	0.00000E+000	6.49983E-001	0.00000E+000	4	...........	1367.57
	825	1.652	6.78961E-001	1.17276E-009	0.00000E+000	6.80025E-001	0.00000E+000	4	...........	1367.57
	828	1.658	7.08956E-001	1.13454E-009	0.00000E+000	7.10017E-001	0.00000E+000	4	...........	1367.57
	831	1.664	7.38926E-001	1.09367E-009	0.00000E+000	7.40010E-001	0.00000E+000	4	...........	1367.57
	834	1.67	7.68938E-001	1.05554E-009	0.00000E+000	7.70002E-001	0.00000E+000	4	...........	1367.57
	837	1.676	7.98936E-001	1.02611E-009	0.00000E+000	7.99994E-001	0.00000E+000	4	...........	1367.57
CURVE4	TABLE
	Pt	T	Vf	Im	Vu	Sig	Ach	IERange	Over	Temp
	#	s	V vs. Ref.	A	V	V	V	#	bits	deg C
	838	1.678	7.91284E-001	9.73565E-010	0.00000E+000	7.89997E-001	0.00000E+000	4	...........	1367.57
	839	1.68	7.81271E-001	9.08114E-010	0.00000E+000	7.79999E-001	0.00000E+000	4	...........	1367.57
	840	1.682	7.71293E-001	8.41213E-010	0.00000E+000	7.70002E-001	0.00000E+000	4	...........	1367.57

File: 20250424_N_CHI105_12,5umAu_E000_PBSargCV50000.DTA
EXPLAIN
TAG	CV
TITLE	LABEL	Cyclic Voltammetry	Test &Identifier
DATE	LABEL	4/24/2025	Date
TIME	LABEL	13:31:45	Time
NOTES	NOTES	3	&Notes...

PSTAT	PSTAT	IFC1010-32247	Potentiostat
VINIT	POTEN	0.00000E+000	T	Initial &E (V)
VLIMIT1	POTEN	-6.00000E-001	F	Scan Limit &1 (V)
VLIMIT2	POTEN	8.00000E-001	F	Scan Limit &2 (V)
VFINAL	POTEN	0.00000E+000	T	Final &E (V)
SCANRATE	QUANT	4.99999E+004	&Scan Rate (mV/s)
STEPSIZE	QUANT	1.00000E+001	St&ep Size (mV)
CYCLES	IQUANT	3	C&ycles (#)
IMODE	SELECTOR	1	I/E Range &Mode
IRANGE	QUANT	1.00000E-005	&Max Current (mA)
AREA	QUANT	1.00000E+000	Electrode &Area (cm^2)
ELECTRODETYPE	SELECTOR	0	Electrode Type
STRIPPING	TOGGLE	F	Used for Stripping
CONDIT	TWOPARAM	F	1.50000E+001	0.00000E+000	Conditionin&g	Time(s)	E(V)
DELAY	TWOPARAM	T	1.50000E+001	0.00000E+000	Init. De&lay	Time(s)	Stab.(mV/s)
EQDELAY	QUANT	0.00000E+000	Equil. &Time (s)
IRCOMP	SELECTOR	0	IRCom&p
PFCOR	QUANT	5.00000E+001	PF Corr. (ohm)
SAMPLINGMODE	SELECTOR	2	Sampling &Mode
OCVCURVE	TABLE	58
	Pt	T	Vf	Vm	Ach	Over	Temp
	#	s	V vs. Ref.	V	V	bits	deg C
	0	0.258333	7.73084E-001	7.73084E-001	0.00000E+000	...........	1367.65
	1	0.516667	7.73085E-001	7.73137E-001	0.00000E+000	...........	1367.65
	2	0.775	7.73090E-001	7.73143E-001	0.00000E+000	...........	1367.65
	3	1.03333	7.73103E-001	7.73152E-001	0.00000E+000	...........	1367.65
	4	1.29167	7.73122E-001	7.73254E-001	0.00000E+000	...........	1367.65
	5	1.55	7.73149E-001	7.73347E-001	0.00000E+000	...........	1367.65
	6	1.80833	7.73192E-001	7.73380E-001	0.00000E+000	...........	1367.65
	7	2.06667	7.73252E-001	7.73515E-001	0.00000E+000	...........	1367.65
	8	2.325	7.73326E-001	7.73693E-001	0.00000E+000	...........	1367.65
	9	2.58333	7.73421E-001	7.73979E-001	0.00000E+000	...........	1367.65
	10	2.84167	7.73553E-001	7.74157E-001	0.00000E+000	...........	1367.65
	11	3.1	7.73726E-001	7.74352E-001	0.00000E+000	...........	1367.65
	12	3.35833	7.73924E-001	7.74505E-001	0.00000E+000	...........	1367.65
	13	3.61667	7.74124E-001	7.74573E-001	0.00000E+000	...........	1367.65
	14	3.875	7.74303E-001	7.74680E-001	0.00000E+000	...........	1367.65
	15	4.13333	7.74451E-001	7.74784E-001	0.00000E+000	...........	1367.65
	16	4.39167	7.74570E-001	7.74821E-001	0.00000E+000	...........	1367.65
	17	4.65	7.74668E-001	7.74833E-001	0.00000E+000	...........	1367.65
	18	4.90833	7.74745E-001	7.74876E-001	0.00000E+000	...........	1367.57
	19	5.16667	7.74799E-001	7.74835E-001	0.00000E+000	...........	1367.57
	20	5.425	7.74831E-001	7.74787E-001	0.00000E+000	...........	1367.57
	21	5.68333	7.74839E-001	7.74743E-001	0.00000E+000	...........	1367.45
	22	5.94167	7.74825E-001	7.74756E-001	0.00000E+000	...........	1367.40
	23	6.2	7.74798E-001	7.74738E-001	0.00000E+000	...........	1367.40
	24	6.45833	7.74773E-001	7.74783E-001	0.00000E+000	...........	1367.40
	25	6.71667	7.74760E-001	7.74819E-001	0.00000E+000	...........	1367.57
	26	6.975	7.74763E-001	7.74815E-001	0.00000E+000	...........	1367.57
	27	7.23333	7.74777E-001	7.74751E-001	0.00000E+000	...........	1367.57
	28	7.49167	7.74791E-001	7.74863E-001	0.00000E+000	...........	1367.57
	29	7.75	7.74803E-001	7.74970E-001	0.00000E+000	...........	1367.65
	30	8.00833	7.74829E-001	7.75143E-001	0.00000E+000	...........	1367.65
	31	8.26667	7.74892E-001	7.75369E-001	0.00000E+000	...........	1367.65
	32	8.525	7.75002E-001	7.75500E-001	0.00000E+000	...........	1367.65
	33	8.78333	7.75151E-001	7.75666E-001	0.00000E+000	...........	1367.65
	34	9.04167	7.75314E-001	7.75641E-001	0.00000E+000	...........	1367.65
	35	9.3	7.75459E-001	7.75523E-001	0.00000E+000	...........	1367.65
	36	9.5583	7.75551E-001	7.75392E-001	0.00000E+000	...........	1367.65
	37	9.8167	7.75566E-001	7.75316E-001	0.00000E+000	...........	1367.65
	38	10.075	7.75512E-001	7.75026E-001	0.00000E+000	...........	1367.65
	39	10.3333	7.75402E-001	7.74796E-001	0.00000E+000	...........	1367.65
	40	10.5917	7.75246E-001	7.74672E-001	0.00000E+000	...........	1367.65
	41	10.85	7.75063E-001	7.74683E-001	0.00000E+000	...........	1367.65
	42	11.1083	7.74889E-001	7.74604E-001	0.00000E+000	...........	1367.65
	43	11.3667	7.74759E-001	7.74618E-001	0.00000E+000	...........	1367.65
	44	11.625	7.74675E-001	7.74436E-001	0.00000E+000	...........	1367.65
	45	11.8833	7.74613E-001	7.74366E-001	0.00000E+000	...........	1367.65
	46	12.1417	7.74548E-001	7.74289E-001	0.00000E+000	...........	1367.65
	47	12.4	7.74467E-001	7.74118E-001	0.00000E+000	...........	1367.65
	48	12.6583	7.74368E-001	7.73831E-001	0.00000E+000	...........	1367.65
	49	12.9167	7.74240E-001	7.73660E-001	0.00000E+000	...........	1367.65
	50	13.175	7.74076E-001	7.73489E-001	0.00000E+000	...........	1367.65
	51	13.4333	7.73890E-001	7.73485E-001	0.00000E+000	...........	1367.65
	52	13.6917	7.73719E-001	7.73596E-001	0.00000E+000	...........	1367.50
	53	13.95	7.73602E-001	7.73610E-001	0.00000E+000	...........	1367.48
	54	14.2083	7.73559E-001	7.73823E-001	0.00000E+000	...........	1367.48
	55	14.4667	7.73589E-001	7.74069E-001	0.00000E+000	...........	1367.48
	56	14.725	7.73687E-001	7.74281E-001	0.00000E+000	...........	1367.57
	57	14.9833	7.73840E-001	7.74341E-001	0.00000E+000	...........	1367.57
EOC	QUANT	0.7738403	Open Circuit (V)
PSTATMODEL	IQUANT	64	Pstat Model
PSTATSECTION	LABEL	IFC1010-32247	Pstat Section
PSTATSERIALNO	LABEL	32247	Pstat Serial Number
CTRLMODE	IQUANT	1	Control Mode
ELECTROMETER	IQUANT	0	RE=0 or CS=1
IESTAB	IQUANT	2	I/E Stability
CASPEED	IQUANT	4	Control Amp Speed
CONVENTION	IQUANT	1	Current Convention
ICHRANGE	IQUANT	2	Ich Range
ICHRANGEMODE	TOGGLE	F	Ich Auto Range
ICHOFFSETENABLE	TOGGLE	F	Ich Offset Enable
ICHOFFSET	QUANT	0	Ich Offset (V)
ICHFILTER	IQUANT	2	Ich Filter
VCHRANGE	IQUANT	2	Vch Range
VCHRANGEMODE	TOGGLE	F	Vch Auto Range
VCHOFFSETENABLE	TOGGLE	F	Vch Offset Enable
VCHOFFSET	QUANT	0	Vch Offset (V)
VCHFILTER	IQUANT	2	Vch Filter
IERANGELOWERLIMIT	IQUANT	4	I/E Range Lower Limit
IERANGEMODE	TOGGLE	F	I/E AutoRange
IERANGE	IQUANT	5	I/E Range
ACHSELECT	IQUANT	0	Ach Select
ACHRANGE	IQUANT	2	Ach Range
ACHOFFSETENABLE	TOGGLE	F	Ach Offset Enable
ACHOFFSET	QUANT	0	Ach Offset (V)
ACHFILTER	IQUANT	1	Ach Filter
SENSECABLEID	IQUANT	14	Sense Cable ID
PWRCABLEID	IQUANT	14	Power Cable ID
DCCALDATE	LABEL	11/18/2024	DC Calibration Date
ACCALDATE	LABEL	4/18/2022	AC Calibration Date
FRAMEWORKVERSION	LABEL	7.10.3	Framework Version
INSTRUMENTVERSION	LABEL	4.91	Instrument Version
COMMVERSION	LABEL	3.10	Communications Version
CPUPLDVERSION	LABEL	2.22	CPU PLD Version
CTRLPLDVERSION	LABEL	0.00	CTRL PLD Version
PSTATPLDVERSION	LABEL	0.00	PSTAT PLD Version
CURVE1	TABLE
	Pt	T	Vf	Im	Vu	Sig	Ach	IERange	Over	Temp
	#	s	V vs. Ref.	A	V	V	V	#	bits	deg C
	0	0.0002	7.73931E-001	-5.80683E-013	0.00000E+000	7.73851E-001	0.00000E+000	5	...........	1367.65
	3	0.0008	7.44293E-001	-3.83030E-010	0.00000E+000	7.43859E-001	0.00000E+000	5	...........	1367.65
	6	0.0014	7.14235E-001	-7.77826E-010	0.00000E+000	7.13816E-001	0.00000E+000	5	...........	1367.65
	9	0.002	6.84247E-001	-1.21067E-009	0.00000E+000	6.83824E-001	0.00000E+000	5	...........	1367.65
	12	0.0026	6.54269E-001	-1.76765E-009	0.00000E+000	6.53832E-001	0.00000E+000	5	...........	1367.65
	15	0.0032	6.24261E-001	-2.49551E-009	0.00000E+000	6.23839E-001	0.00000E+000	5	...........	1367.65
	18	0.0038	5.94233E-001	-3.32849E-009	0.00000E+000	5.93847E-001	0.00000E+000	5	...........	1367.65
[...]
	741	0.1484	-1.60350E-001	6.87282E-009	0.00000E+000	-1.60010E-001	0.00000E+000	5	...........	1367.65
	744	0.149	-1.30362E-001	7.20488E-009	0.00000E+000	-1.30018E-001	0.00000E+000	5	...........	1367.65
	747	0.1496	-1.00294E-001	7.45384E-009	0.00000E+000	-9.99754E-002	0.00000E+000	5	...........	1367.65
	750	0.1502	-7.03361E-002	7.63905E-009	0.00000E+000	-6.99831E-002	0.00000E+000	5	...........	1367.65
	753	0.1508	-4.03781E-002	7.77588E-009	0.00000E+000	-3.99908E-002	0.00000E+000	5	...........	1367.65
	756	0.1514	-1.03500E-002	7.89135E-009	0.00000E+000	-9.99847E-003	0.00000E+000	5	...........	1367.65
	759	0.152	1.97081E-002	8.00348E-009	0.00000E+000	1.99939E-002	0.00000E+000	5	...........	1367.65
	762	0.1526	4.96562E-002	8.14098E-009	0.00000E+000	4.99862E-002	0.00000E+000	5	...........	1367.65
	765	0.1532	7.97043E-002	8.32052E-009	0.00000E+000	7.99785E-002	0.00000E+000	5	...........	1367.65
	768	0.1538	1.09732E-001	8.54178E-009	0.00000E+000	1.10021E-001	0.00000E+000	5	...........	1367.65
	771	0.1544	1.39660E-001	8.79775E-009	0.00000E+000	1.40013E-001	0.00000E+000	5	...........	1367.65
	774	0.155	1.69658E-001	9.10010E-009	0.00000E+000	1.70005E-001	0.00000E+000	5	...........	1367.65
	777	0.1556	1.99707E-001	9.45352E-009	0.00000E+000	1.99998E-001	0.00000E+000	5	...........	1367.65
	780	0.1562	2.29675E-001	9.87935E-009	0.00000E+000	2.29990E-001	0.00000E+000	5	...........	1367.65
	783	0.1568	2.59703E-001	1.04020E-008	0.00000E+000	2.59982E-001	0.00000E+000	5	...........	1367.65
	786	0.1574	2.89731E-001	1.10524E-008	0.00000E+000	2.90025E-001	0.00000E+000	5	...........	1367.65
	789	0.158	3.19679E-001	1.17302E-008	0.00000E+000	3.20017E-001	0.00000E+000	5	...........	1367.65
	792	0.1586	3.49717E-001	1.23075E-008	0.00000E+000	3.50009E-001	0.00000E+000	5	...........	1367.65
	795	0.1592	3.79665E-001	1.27307E-008	0.00000E+000	3.80002E-001	0.00000E+000	5	...........	1367.65
	798	0.1598	4.09673E-001	1.30287E-008	0.00000E+000	4.09994E-001	0.00000E+000	5	...........	1367.65
	801	0.1604	4.39711E-001	1.31959E-008	0.00000E+000	4.39986E-001	0.00000E+000	5	...........	1367.65
	804	0.161	4.69679E-001	1.32266E-008	0.00000E+000	4.69979E-001	0.00000E+000	5	...........	1367.65
	807	0.1616	4.99757E-001	1.31015E-008	0.00000E+000	5.00021E-001	0.00000E+000	5	...........	1367.65
	810	0.1622	5.29745E-001	1.28448E-008	0.00000E+000	5.30013E-001	0.00000E+000	5	...........	1367.65
	813	0.1628	5.59724E-001	1.24884E-008	0.00000E+000	5.60006E-001	0.00000E+000	5	...........	1367.65
	816	0.1634	5.89732E-001	1.20846E-008	0.00000E+000	5.89998E-001	0.00000E+000	5	...........	1367.65
	819	0.164	6.19720E-001	1.16624E-008	0.00000E+000	6.19990E-001	0.00000E+000	5	...........	1367.65
	822	0.1646	6.49698E-001	1.12493E-008	0.00000E+000	6.49983E-001	0.00000E+000	5	...........	1367.65
	825	0.1652	6.79756E-001	1.08251E-008	0.00000E+000	6.80025E-001	0.00000E+000	5	...........	1367.65
	828	0.1658	7.09774E-001	1.03873E-008	0.00000E+000	7.10017E-001	0.00000E+000	5	...........	1367.65
	831	0.1664	7.39712E-001	9.93708E-009	0.00000E+000	7.40010E-001	0.00000E+000	5	...........	1367.65
	834	0.167	7.69730E-001	9.49723E-009	0.00000E+000	7.70002E-001	0.00000E+000	5	...........	1367.65
	837	0.1676	7.99748E-001	9.09777E-009	0.00000E+000	7.99994E-001	0.00000E+000	5	...........	1367.65
CURVE4	TABLE
	Pt	T	Vf	Im	Vu	Sig	Ach	IERange	Over	Temp
	#	s	V vs. Ref.	A	V	V	V	#	bits	deg C
	838	0.1678	7.90446E-001	8.56748E-009	0.00000E+000	7.89997E-001	0.00000E+000	5	...........	1367.65
	839	0.168	7.80393E-001	7.96143E-009	0.00000E+000	7.79999E-001	0.00000E+000	5	...........	1367.65
	840	0.1682	7.70450E-001	7.34638E-009	0.00000E+000	7.70002E-001	0.00000E+000	5	...........	1367.65