Folder: EchemAnalysis_MATLAB/Test_Data_Files (part 4)

File: 20250424_K_CHI105_12,5umAu_E000_PBSarg_CV100.DTA
EXPLAIN
TAG	CV
TITLE	LABEL	Cyclic Voltammetry	Test &Identifier
DATE	LABEL	4/24/2025	Date
TIME	LABEL	13:35:30	Time
NOTES	NOTES	3	&Notes...

PSTAT	PSTAT	IFC1010-32247	Potentiostat
VINIT	POTEN	0.00000E+000	T	Initial &E (V)
VLIMIT1	POTEN	-6.00000E-001	F	Scan Limit &1 (V)
VLIMIT2	POTEN	8.00000E-001	F	Scan Limit &2 (V)
VFINAL	POTEN	0.00000E+000	T	Final &E (V)
SCANRATE	QUANT	9.99998E+001	&Scan Rate (mV/s)
STEPSIZE	QUANT	1.00000E+001	St&ep Size (mV)
CYCLES	IQUANT	3	C&ycles (#)
IMODE	SELECTOR	1	I/E Range &Mode
IRANGE	QUANT	1.00000E-008	&Max Current (mA)
AREA	QUANT	1.00000E+000	Electrode &Area (cm^2)
ELECTRODETYPE	SELECTOR	0	Electrode Type
STRIPPING	TOGGLE	F	Used for Stripping
CONDIT	TWOPARAM	F	1.50000E+001	0.00000E+000	Conditionin&g	Time(s)	E(V)
DELAY	TWOPARAM	T	1.50000E+001	0.00000E+000	Init. De&lay	Time(s)	Stab.(mV/s)
EQDELAY	QUANT	0.00000E+000	Equil. &Time (s)
IRCOMP	SELECTOR	0	IRCom&p
PFCOR	QUANT	5.00000E+001	PF Corr. (ohm)
SAMPLINGMODE	SELECTOR	2	Sampling &Mode
OCVCURVE	TABLE	58
	Pt	T	Vf	Vm	Ach	Over	Temp
	#	s	V vs. Ref.	V	V	bits	deg C
	0	0.258333	3.31310E-001	3.31310E-001	0.00000E+000	...........	1367.65
	1	0.516667	3.31339E-001	3.32802E-001	0.00000E+000	...........	1367.65
	2	0.775	3.31515E-001	3.34294E-001	0.00000E+000	...........	1367.65
	3	1.03333	3.32021E-001	3.35806E-001	0.00000E+000	...........	1367.65
	4	1.29167	3.32947E-001	3.37509E-001	0.00000E+000	...........	1367.65
	5	1.55	3.34233E-001	3.39408E-001	0.00000E+000	...........	1367.65
	6	1.80833	3.35773E-001	3.41507E-001	0.00000E+000	...........	1367.65
	7	2.06667	3.37500E-001	3.43699E-001	0.00000E+000	...........	1367.65
	8	2.325	3.39385E-001	3.45672E-001	0.00000E+000	...........	1367.65
	9	2.58333	3.41377E-001	3.47237E-001	0.00000E+000	...........	1367.65
	10	2.84167	3.43376E-001	3.48736E-001	0.00000E+000	...........	1367.65
	11	3.1	3.45266E-001	3.50114E-001	0.00000E+000	...........	1367.65
	12	3.35833	3.46982E-001	3.51255E-001	0.00000E+000	...........	1367.65
	13	3.61667	3.48515E-001	3.52359E-001	0.00000E+000	...........	1367.65
	14	3.875	3.49893E-001	3.54043E-001	0.00000E+000	...........	1367.65
	15	4.13333	3.51203E-001	3.55903E-001	0.00000E+000	...........	1367.65
	16	4.39167	3.52577E-001	3.57879E-001	0.00000E+000	...........	1367.65
	17	4.65	3.54119E-001	3.59721E-001	0.00000E+000	...........	1367.69
	18	4.90833	3.55835E-001	3.61370E-001	0.00000E+000	...........	1367.74
	19	5.16667	3.57650E-001	3.63318E-001	0.00000E+000	...........	1367.74
	20	5.425	3.59494E-001	3.65516E-001	0.00000E+000	...........	1367.74
	21	5.68333	3.61364E-001	3.67288E-001	0.00000E+000	...........	1367.65
	22	5.94167	3.63270E-001	3.68864E-001	0.00000E+000	...........	1367.65
	23	6.2	3.65168E-001	3.70446E-001	0.00000E+000	...........	1367.65
	24	6.45833	3.66990E-001	3.72301E-001	0.00000E+000	...........	1367.65
	25	6.71667	3.68734E-001	3.74206E-001	0.00000E+000	...........	1367.65
	26	6.975	3.70462E-001	3.76072E-001	0.00000E+000	...........	1367.65
	27	7.23333	3.72233E-001	3.77927E-001	0.00000E+000	...........	1367.65
	28	7.49167	3.74054E-001	3.79611E-001	0.00000E+000	...........	1367.65
	29	7.75	3.75883E-001	3.81054E-001	0.00000E+000	...........	1367.65
	30	8.00833	3.77652E-001	3.82090E-001	0.00000E+000	...........	1367.65
	31	8.26667	3.79274E-001	3.82942E-001	0.00000E+000	...........	1367.65
	32	8.525	3.80685E-001	3.84061E-001	0.00000E+000	...........	1367.65
	33	8.78333	3.81895E-001	3.85366E-001	0.00000E+000	...........	1367.65
	34	9.04167	3.83005E-001	3.86743E-001	0.00000E+000	...........	1367.65
	35	9.3	3.84135E-001	3.88141E-001	0.00000E+000	...........	1367.65
	36	9.5583	3.85349E-001	3.89318E-001	0.00000E+000	...........	1367.65
	37	9.8167	3.86634E-001	3.90623E-001	0.00000E+000	...........	1367.65
	38	10.075	3.87943E-001	3.92028E-001	0.00000E+000	...........	1367.65
	39	10.3333	3.89257E-001	3.93471E-001	0.00000E+000	...........	1367.65
	40	10.5917	3.90592E-001	3.95035E-001	0.00000E+000	...........	1367.65
	41	10.85	3.91984E-001	3.96990E-001	0.00000E+000	...........	1367.65
	42	11.1083	3.93476E-001	3.98811E-001	0.00000E+000	...........	1367.65
	43	11.3667	3.95097E-001	4.00511E-001	0.00000E+000	...........	1367.65
	44	11.625	3.96820E-001	4.02140E-001	0.00000E+000	...........	1367.65
	45	11.8833	3.98578E-001	4.03755E-001	0.00000E+000	...........	1367.31
	46	12.1417	4.00312E-001	4.05614E-001	0.00000E+000	...........	1367.31
	47	12.4	4.02021E-001	4.07494E-001	0.00000E+000	...........	1367.31
	48	12.6583	4.03745E-001	4.09241E-001	0.00000E+000	...........	1367.26
	49	12.9167	4.05508E-001	4.11009E-001	0.00000E+000	...........	1367.22
	50	13.175	4.07304E-001	4.13120E-001	0.00000E+000	...........	1367.22
	51	13.4333	4.09138E-001	4.15410E-001	0.00000E+000	...........	1367.22
	52	13.6917	4.11055E-001	4.17608E-001	0.00000E+000	...........	1367.57
	53	13.95	4.13083E-001	4.19525E-001	0.00000E+000	...........	1367.57
	54	14.2083	4.15184E-001	4.21361E-001	0.00000E+000	...........	1367.57
	55	14.4667	4.17269E-001	4.23127E-001	0.00000E+000	...........	1367.57
	56	14.725	4.19275E-001	4.25334E-001	0.00000E+000	...........	1367.65
	57	14.9833	4.21228E-001	4.27744E-001	0.00000E+000	...........	1367.65
EOC	QUANT	0.4212279	Open Circuit (V)
PSTATMODEL	IQUANT	64	Pstat Model
PSTATSECTION	LABEL	IFC1010-32247	Pstat Section
PSTATSERIALNO	LABEL	32247	Pstat Serial Number
CTRLMODE	IQUANT	1	Control Mode
ELECTROMETER	IQUANT	0	RE=0 or CS=1
IESTAB	IQUANT	2	I/E Stability
CASPEED	IQUANT	4	Control Amp Speed
CONVENTION	IQUANT	1	Current Convention
ICHRANGE	IQUANT	2	Ich Range
ICHRANGEMODE	TOGGLE	F	Ich Auto Range
ICHOFFSETENABLE	TOGGLE	F	Ich Offset Enable
ICHOFFSET	QUANT	0	Ich Offset (V)
ICHFILTER	IQUANT	3	Ich Filter
VCHRANGE	IQUANT	2	Vch Range
VCHRANGEMODE	TOGGLE	F	Vch Auto Range
VCHOFFSETENABLE	TOGGLE	F	Vch Offset Enable
VCHOFFSET	QUANT	0	Vch Offset (V)
VCHFILTER	IQUANT	3	Vch Filter
IERANGELOWERLIMIT	IQUANT	4	I/E Range Lower Limit
IERANGEMODE	TOGGLE	F	I/E AutoRange
IERANGE	IQUANT	4	I/E Range
ACHSELECT	IQUANT	0	Ach Select
ACHRANGE	IQUANT	2	Ach Range
ACHOFFSETENABLE	TOGGLE	F	Ach Offset Enable
ACHOFFSET	QUANT	0	Ach Offset (V)
ACHFILTER	IQUANT	1	Ach Filter
SENSECABLEID	IQUANT	14	Sense Cable ID
PWRCABLEID	IQUANT	14	Power Cable ID
DCCALDATE	LABEL	11/18/2024	DC Calibration Date
ACCALDATE	LABEL	4/18/2022	AC Calibration Date
FRAMEWORKVERSION	LABEL	7.10.3	Framework Version
INSTRUMENTVERSION	LABEL	4.91	Instrument Version
COMMVERSION	LABEL	3.10	Communications Version
CPUPLDVERSION	LABEL	2.22	CPU PLD Version
CTRLPLDVERSION	LABEL	0.00	CTRL PLD Version
PSTATPLDVERSION	LABEL	0.00	PSTAT PLD Version
CURVE1	TABLE
	Pt	T	Vf	Im	Vu	Sig	Ach	IERange	Over	Temp
	#	s	V vs. Ref.	A	V	V	V	#	bits	deg C
	0	0.1	4.21304E-001	-1.42727E-011	0.00000E+000	4.21241E-001	0.00000E+000	4	...........	1367.65
	3	0.4	3.91326E-001	-3.63762E-011	0.00000E+000	3.91249E-001	0.00000E+000	4	...........	1367.65
	6	0.7	3.61274E-001	-4.63878E-011	0.00000E+000	3.61207E-001	0.00000E+000	4	...........	1367.65
	9	1	3.31291E-001	-5.61015E-011	0.00000E+000	3.31214E-001	0.00000E+000	4	...........	1367.58
	12	1.3	3.01316E-001	-6.35665E-011	0.00000E+000	3.01222E-001	0.00000E+000	4	...........	1367.57
	15	1.6	2.71306E-001	-6.99883E-011	0.00000E+000	2.71230E-001	0.00000E+000	4	...........	1367.57
	18	1.9	2.41306E-001	-7.52051E-011	0.00000E+000	2.41237E-001	0.00000E+000	4	...........	1367.57
[...]
	804	80.5	7.80107E-001	5.29573E-011	0.00000E+000	7.79999E-001	0.00000E+000	4	...........	1366.97
	805	80.6	7.70139E-001	4.24589E-011	0.00000E+000	7.70002E-001	0.00000E+000	4	...........	1366.97
	806	80.7	7.60130E-001	3.52329E-011	0.00000E+000	7.60004E-001	0.00000E+000	4	...........	1366.97
	807	80.8	7.50127E-001	2.91155E-011	0.00000E+000	7.50007E-001	0.00000E+000	4	...........	1366.97
	808	80.9	7.40109E-001	2.44026E-011	0.00000E+000	7.40010E-001	0.00000E+000	4	...........	1366.96
	809	81	7.30121E-001	2.11453E-011	0.00000E+000	7.30012E-001	0.00000E+000	4	...........	1366.88
	810	81.1	7.20122E-001	1.81356E-011	0.00000E+000	7.20015E-001	0.00000E+000	4	...........	1366.88
	811	81.2	7.10156E-001	1.55265E-011	0.00000E+000	7.10017E-001	0.00000E+000	4	...........	1366.88
	812	81.3	7.00139E-001	1.30550E-011	0.00000E+000	7.00020E-001	0.00000E+000	4	...........	1366.88
	813	81.4	6.90135E-001	1.07117E-011	0.00000E+000	6.90022E-001	0.00000E+000	4	...........	1366.88
	814	81.5	6.80166E-001	8.79327E-012	0.00000E+000	6.80025E-001	0.00000E+000	4	...........	1366.88
	815	81.6	6.70098E-001	6.03038E-012	0.00000E+000	6.69977E-001	0.00000E+000	4	...........	1366.88
	816	81.7	6.60100E-001	4.06807E-012	0.00000E+000	6.59980E-001	0.00000E+000	4	...........	1366.88
	817	81.8	6.50097E-001	2.61258E-012	0.00000E+000	6.49983E-001	0.00000E+000	4	...........	1366.88
	818	81.9	6.40085E-001	9.07529E-013	0.00000E+000	6.39985E-001	0.00000E+000	4	...........	1366.88
	819	82	6.30097E-001	-8.55150E-013	0.00000E+000	6.29988E-001	0.00000E+000	4	...........	1366.97
	820	82.1	6.20102E-001	-2.14049E-012	0.00000E+000	6.19990E-001	0.00000E+000	4	...........	1366.97
	821	82.2	6.10105E-001	-3.60238E-012	0.00000E+000	6.09993E-001	0.00000E+000	4	...........	1366.97
	822	82.3	6.00098E-001	-5.00721E-012	0.00000E+000	5.99995E-001	0.00000E+000	4	...........	1366.97
	823	82.4	5.90129E-001	-6.19719E-012	0.00000E+000	5.89998E-001	0.00000E+000	4	...........	1366.97
	824	82.5	5.80108E-001	-7.63144E-012	0.00000E+000	5.80001E-001	0.00000E+000	4	...........	1366.97
	825	82.6	5.70108E-001	-8.70126E-012	0.00000E+000	5.70003E-001	0.00000E+000	4	...........	1366.97
	826	82.7	5.60111E-001	-9.64056E-012	0.00000E+000	5.60006E-001	0.00000E+000	4	...........	1366.97
	827	82.8	5.50119E-001	-1.07418E-011	0.00000E+000	5.50008E-001	0.00000E+000	4	...........	1366.97
	828	82.9	5.40105E-001	-1.22572E-011	0.00000E+000	5.40011E-001	0.00000E+000	4	...........	1366.96
	829	83	5.30109E-001	-1.34872E-011	0.00000E+000	5.30013E-001	0.00000E+000	4	...........	1366.88
	830	83.1	5.20109E-001	-1.47892E-011	0.00000E+000	5.20016E-001	0.00000E+000	4	...........	1366.88
	831	83.2	5.10113E-001	-1.60636E-011	0.00000E+000	5.10018E-001	0.00000E+000	4	...........	1366.88
	832	83.3	5.00147E-001	-1.73864E-011	0.00000E+000	5.00021E-001	0.00000E+000	4	...........	1366.88
	833	83.4	4.90149E-001	-1.91246E-011	0.00000E+000	4.90024E-001	0.00000E+000	4	...........	1366.88
	834	83.5	4.80087E-001	-2.07803E-011	0.00000E+000	4.79976E-001	0.00000E+000	4	...........	1366.88
	835	83.6	4.70077E-001	-2.22416E-011	0.00000E+000	4.69979E-001	0.00000E+000	4	...........	1366.88
	836	83.7	4.60084E-001	-2.38448E-011	0.00000E+000	4.59981E-001	0.00000E+000	4	...........	1366.88
	837	83.8	4.50084E-001	-2.57154E-011	0.00000E+000	4.49984E-001	0.00000E+000	4	...........	1366.88
	838	83.9	4.40076E-001	-2.76679E-011	0.00000E+000	4.39986E-001	0.00000E+000	4	...........	1366.88
	839	84	4.30081E-001	-2.95519E-011	0.00000E+000	4.29989E-001	0.00000E+000	4	...........	1366.79
	840	84.1	4.20092E-001	-3.16865E-011	0.00000E+000	4.19991E-001	0.00000E+000	4	...........	1366.79

File: 20250424_L_CHI105_12,5umAu_E000_PBSarg_CV500.DTA
EXPLAIN
TAG	CV
TITLE	LABEL	Cyclic Voltammetry	Test &Identifier
DATE	LABEL	4/24/2025	Date
TIME	LABEL	13:28:02	Time
NOTES	NOTES	3	&Notes...

PSTAT	PSTAT	IFC1010-32247	Potentiostat
VINIT	POTEN	0.00000E+000	T	Initial &E (V)
VLIMIT1	POTEN	-6.00000E-001	F	Scan Limit &1 (V)
VLIMIT2	POTEN	8.00000E-001	F	Scan Limit &2 (V)
VFINAL	POTEN	0.00000E+000	T	Final &E (V)
SCANRATE	QUANT	4.99999E+002	&Scan Rate (mV/s)
STEPSIZE	QUANT	1.00000E+001	St&ep Size (mV)
CYCLES	IQUANT	3	C&ycles (#)
IMODE	SELECTOR	1	I/E Range &Mode
IRANGE	QUANT	1.00000E-007	&Max Current (mA)
AREA	QUANT	1.00000E+000	Electrode &Area (cm^2)
ELECTRODETYPE	SELECTOR	0	Electrode Type
STRIPPING	TOGGLE	F	Used for Stripping
CONDIT	TWOPARAM	F	1.50000E+001	0.00000E+000	Conditionin&g	Time(s)	E(V)
DELAY	TWOPARAM	T	1.50000E+001	0.00000E+000	Init. De&lay	Time(s)	Stab.(mV/s)
EQDELAY	QUANT	0.00000E+000	Equil. &Time (s)
IRCOMP	SELECTOR	0	IRCom&p
PFCOR	QUANT	5.00000E+001	PF Corr. (ohm)
SAMPLINGMODE	SELECTOR	2	Sampling &Mode
OCVCURVE	TABLE	58
	Pt	T	Vf	Vm	Ach	Over	Temp
	#	s	V vs. Ref.	V	V	bits	deg C
	0	0.258333	5.44689E-001	5.44689E-001	0.00000E+000	...........	1367.65
	1	0.516667	5.44750E-001	5.47871E-001	0.00000E+000	...........	1367.65
	2	0.775	5.45129E-001	5.51170E-001	0.00000E+000	...........	1367.65
	3	1.03333	5.46221E-001	5.54527E-001	0.00000E+000	...........	1367.65
	4	1.29167	5.48229E-001	5.57845E-001	0.00000E+000	...........	1367.65
	5	1.55	5.50990E-001	5.61168E-001	0.00000E+000	...........	1367.65
	6	1.80833	5.54176E-001	5.64679E-001	0.00000E+000	...........	1367.65
	7	2.06667	5.57536E-001	5.68088E-001	0.00000E+000	...........	1367.65
	8	2.325	5.60952E-001	5.71560E-001	0.00000E+000	...........	1367.65
	9	2.58333	5.64387E-001	5.74932E-001	0.00000E+000	...........	1367.65
	10	2.84167	5.67822E-001	5.78219E-001	0.00000E+000	...........	1367.65
	11	3.1	5.71236E-001	5.81472E-001	0.00000E+000	...........	1367.65
	12	3.35833	5.74610E-001	5.84827E-001	0.00000E+000	...........	1367.51
	13	3.61667	5.77946E-001	5.88256E-001	0.00000E+000	...........	1367.48
	14	3.875	5.81273E-001	5.91660E-001	0.00000E+000	...........	1367.48
	15	4.13333	5.84618E-001	5.94990E-001	0.00000E+000	...........	1367.48
	16	4.39167	5.87988E-001	5.98469E-001	0.00000E+000	...........	1367.57
	17	4.65	5.91375E-001	6.01905E-001	0.00000E+000	...........	1367.57
	18	4.90833	5.94778E-001	6.05227E-001	0.00000E+000	...........	1367.57
	19	5.16667	5.98186E-001	6.08556E-001	0.00000E+000	...........	1367.57
	20	5.425	6.01577E-001	6.11714E-001	0.00000E+000	...........	1367.65
	21	5.68333	6.04929E-001	6.14975E-001	0.00000E+000	...........	1367.65
	22	5.94167	6.08229E-001	6.18222E-001	0.00000E+000	...........	1367.65
	23	6.2	6.11489E-001	6.21451E-001	0.00000E+000	...........	1367.65
	24	6.45833	6.14729E-001	6.24615E-001	0.00000E+000	...........	1367.65
	25	6.71667	6.17953E-001	6.27604E-001	0.00000E+000	...........	1367.65
	26	6.975	6.21144E-001	6.30630E-001	0.00000E+000	...........	1367.65
	27	7.23333	6.24277E-001	6.33527E-001	0.00000E+000	...........	1367.65
	28	7.49167	6.27342E-001	6.36451E-001	0.00000E+000	...........	1367.65
	29	7.75	6.30344E-001	6.39393E-001	0.00000E+000	...........	1367.65
	30	8.00833	6.33303E-001	6.42355E-001	0.00000E+000	...........	1367.65
	31	8.26667	6.36241E-001	6.45257E-001	0.00000E+000	...........	1367.65
	32	8.525	6.39175E-001	6.48232E-001	0.00000E+000	...........	1367.65
	33	8.78333	6.42110E-001	6.51102E-001	0.00000E+000	...........	1367.65
	34	9.04167	6.45041E-001	6.53893E-001	0.00000E+000	...........	1367.65
	35	9.3	6.47949E-001	6.56576E-001	0.00000E+000	...........	1367.65
	36	9.5583	6.50809E-001	6.59159E-001	0.00000E+000	...........	1367.65
	37	9.8167	6.53595E-001	6.61714E-001	0.00000E+000	...........	1367.65
	38	10.075	6.56293E-001	6.63952E-001	0.00000E+000	...........	1367.65
	39	10.3333	6.58892E-001	6.66450E-001	0.00000E+000	...........	1367.50
	40	10.5917	6.61398E-001	6.68839E-001	0.00000E+000	...........	1367.22
	41	10.85	6.63837E-001	6.71150E-001	0.00000E+000	...........	1367.22
	42	11.1083	6.66238E-001	6.73469E-001	0.00000E+000	...........	1367.22
	43	11.3667	6.68610E-001	6.75662E-001	0.00000E+000	...........	1367.57
	44	11.625	6.70945E-001	6.77957E-001	0.00000E+000	...........	1367.57
	45	11.8833	6.73243E-001	6.80186E-001	0.00000E+000	...........	1367.57
	46	12.1417	6.75511E-001	6.82359E-001	0.00000E+000	...........	1367.57
	47	12.4	6.77757E-001	6.84495E-001	0.00000E+000	...........	1367.57
	48	12.6583	6.79974E-001	6.86552E-001	0.00000E+000	...........	1367.57
	49	12.9167	6.82154E-001	6.88727E-001	0.00000E+000	...........	1367.57
	50	13.175	6.84300E-001	6.90851E-001	0.00000E+000	...........	1367.57
	51	13.4333	6.86427E-001	6.92830E-001	0.00000E+000	...........	1367.65
	52	13.6917	6.88537E-001	6.94877E-001	0.00000E+000	...........	1367.65
	53	13.95	6.90619E-001	6.96746E-001	0.00000E+000	...........	1367.65
	54	14.2083	6.92658E-001	6.98614E-001	0.00000E+000	...........	1367.65
	55	14.4667	6.94641E-001	7.00405E-001	0.00000E+000	...........	1367.65
	56	14.725	6.96564E-001	7.02206E-001	0.00000E+000	...........	1367.65
	57	14.9833	6.98433E-001	7.04015E-001	0.00000E+000	...........	1367.65
EOC	QUANT	0.698433	Open Circuit (V)
PSTATMODEL	IQUANT	64	Pstat Model
PSTATSECTION	LABEL	IFC1010-32247	Pstat Section
PSTATSERIALNO	LABEL	32247	Pstat Serial Number
CTRLMODE	IQUANT	1	Control Mode
ELECTROMETER	IQUANT	0	RE=0 or CS=1
IESTAB	IQUANT	2	I/E Stability
CASPEED	IQUANT	4	Control Amp Speed
CONVENTION	IQUANT	1	Current Convention
ICHRANGE	IQUANT	2	Ich Range
ICHRANGEMODE	TOGGLE	F	Ich Auto Range
ICHOFFSETENABLE	TOGGLE	F	Ich Offset Enable
ICHOFFSET	QUANT	0	Ich Offset (V)
ICHFILTER	IQUANT	3	Ich Filter
VCHRANGE	IQUANT	2	Vch Range
VCHRANGEMODE	TOGGLE	F	Vch Auto Range
VCHOFFSETENABLE	TOGGLE	F	Vch Offset Enable
VCHOFFSET	QUANT	0	Vch Offset (V)
VCHFILTER	IQUANT	3	Vch Filter
IERANGELOWERLIMIT	IQUANT	4	I/E Range Lower Limit
IERANGEMODE	TOGGLE	F	I/E AutoRange
IERANGE	IQUANT	4	I/E Range
ACHSELECT	IQUANT	0	Ach Select
ACHRANGE	IQUANT	2	Ach Range
ACHOFFSETENABLE	TOGGLE	F	Ach Offset Enable
ACHOFFSET	QUANT	0	Ach Offset (V)
ACHFILTER	IQUANT	1	Ach Filter
SENSECABLEID	IQUANT	14	Sense Cable ID
PWRCABLEID	IQUANT	14	Power Cable ID
DCCALDATE	LABEL	11/18/2024	DC Calibration Date
ACCALDATE	LABEL	4/18/2022	AC Calibration Date
FRAMEWORKVERSION	LABEL	7.10.3	Framework Version
INSTRUMENTVERSION	LABEL	4.91	Instrument Version
COMMVERSION	LABEL	3.10	Communications Version
CPUPLDVERSION	LABEL	2.22	CPU PLD Version
CTRLPLDVERSION	LABEL	0.00	CTRL PLD Version
PSTATPLDVERSION	LABEL	0.00	PSTAT PLD Version
CURVE1	TABLE
	Pt	T	Vf	Im	Vu	Sig	Ach	IERange	Over	Temp
	#	s	V vs. Ref.	A	V	V	V	#	bits	deg C
	0	0.02	6.98511E-001	-1.10032E-011	0.00000E+000	6.98420E-001	0.00000E+000	4	...........	1367.65
	3	0.08	6.68631E-001	-4.83796E-011	0.00000E+000	6.68428E-001	0.00000E+000	4	...........	1367.65
	6	0.14	6.38604E-001	-6.97937E-011	0.00000E+000	6.38436E-001	0.00000E+000	4	...........	1367.65
	9	0.2	6.08646E-001	-8.46152E-011	0.00000E+000	6.08443E-001	0.00000E+000	4	...........	1367.65
	12	0.26	5.78649E-001	-9.54419E-011	0.00000E+000	5.78451E-001	0.00000E+000	4	...........	1367.65
	15	0.32	5.48607E-001	-1.04589E-010	0.00000E+000	5.48409E-001	0.00000E+000	4	...........	1367.65
	18	0.38	5.18599E-001	-1.14105E-010	0.00000E+000	5.18416E-001	0.00000E+000	4	...........	1367.65
[...]
	755	15.12	4.99089E-002	1.39953E-010	0.00000E+000	4.99862E-002	0.00000E+000	4	...........	1366.45
	758	15.18	7.99083E-002	1.50171E-010	0.00000E+000	7.99785E-002	0.00000E+000	4	...........	1366.45
	761	15.24	1.09954E-001	1.60565E-010	0.00000E+000	1.10021E-001	0.00000E+000	4	...........	1366.45
	764	15.3	1.39925E-001	1.71010E-010	0.00000E+000	1.40013E-001	0.00000E+000	4	...........	1366.45
	767	15.36	1.69932E-001	1.81959E-010	0.00000E+000	1.70005E-001	0.00000E+000	4	...........	1366.45
	770	15.42	1.99930E-001	1.92734E-010	0.00000E+000	1.99998E-001	0.00000E+000	4	...........	1366.45
	773	15.48	2.29944E-001	2.06704E-010	0.00000E+000	2.29990E-001	0.00000E+000	4	...........	1366.45
	776	15.54	2.59921E-001	2.20902E-010	0.00000E+000	2.59982E-001	0.00000E+000	4	...........	1366.45
	779	15.6	2.89970E-001	2.31341E-010	0.00000E+000	2.90025E-001	0.00000E+000	4	...........	1366.88
	782	15.66	3.19963E-001	2.37822E-010	0.00000E+000	3.20017E-001	0.00000E+000	4	...........	1366.88
	785	15.72	3.49961E-001	2.40722E-010	0.00000E+000	3.50009E-001	0.00000E+000	4	...........	1366.88
	788	15.78	3.79943E-001	2.41599E-010	0.00000E+000	3.80002E-001	0.00000E+000	4	...........	1366.88
	791	15.84	4.09960E-001	2.38736E-010	0.00000E+000	4.09994E-001	0.00000E+000	4	...........	1366.88
	794	15.9	4.39946E-001	2.32602E-010	0.00000E+000	4.39986E-001	0.00000E+000	4	...........	1366.88
	797	15.96	4.69931E-001	2.24817E-010	0.00000E+000	4.69979E-001	0.00000E+000	4	...........	1366.88
	800	16.02	4.99984E-001	2.15975E-010	0.00000E+000	5.00021E-001	0.00000E+000	4	...........	1366.88
	803	16.08	5.29963E-001	2.06612E-010	0.00000E+000	5.30013E-001	0.00000E+000	4	...........	1366.88
	806	16.14	5.59969E-001	2.02410E-010	0.00000E+000	5.60006E-001	0.00000E+000	4	...........	1366.88
	809	16.2	5.89973E-001	1.97627E-010	0.00000E+000	5.89998E-001	0.00000E+000	4	...........	1366.88
	812	16.26	6.19956E-001	1.95601E-010	0.00000E+000	6.19990E-001	0.00000E+000	4	...........	1366.88
	815	16.32	6.49944E-001	1.92704E-010	0.00000E+000	6.49983E-001	0.00000E+000	4	...........	1366.88
	818	16.38	6.79991E-001	1.91296E-010	0.00000E+000	6.80025E-001	0.00000E+000	4	...........	1366.88
	821	16.44	7.10000E-001	1.86012E-010	0.00000E+000	7.10017E-001	0.00000E+000	4	...........	1366.88
	824	16.5	7.39980E-001	1.83703E-010	0.00000E+000	7.40010E-001	0.00000E+000	4	...........	1366.88
	827	16.56	7.69996E-001	1.90169E-010	0.00000E+000	7.70002E-001	0.00000E+000	4	...........	1366.80
	830	16.62	7.99999E-001	2.14286E-010	0.00000E+000	7.99994E-001	0.00000E+000	4	...........	1366.79
CURVE4	TABLE
	Pt	T	Vf	Im	Vu	Sig	Ach	IERange	Over	Temp
	#	s	V vs. Ref.	A	V	V	V	#	bits	deg C
	831	16.64	7.90208E-001	1.71949E-010	0.00000E+000	7.89997E-001	0.00000E+000	4	...........	1366.79
	832	16.66	7.80186E-001	1.31104E-010	0.00000E+000	7.79999E-001	0.00000E+000	4	...........	1366.79
	833	16.68	7.70207E-001	9.96269E-011	0.00000E+000	7.70002E-001	0.00000E+000	4	...........	1366.79
	834	16.7	7.60199E-001	7.59875E-011	0.00000E+000	7.60004E-001	0.00000E+000	4	...........	1366.79
	835	16.72	7.50198E-001	5.79133E-011	0.00000E+000	7.50007E-001	0.00000E+000	4	...........	1366.79
	836	16.74	7.40188E-001	4.38259E-011	0.00000E+000	7.40010E-001	0.00000E+000	4	...........	1366.79
	837	16.76	7.30226E-001	3.31028E-011	0.00000E+000	7.30012E-001	0.00000E+000	4	...........	1366.79
	838	16.78	7.20220E-001	2.35717E-011	0.00000E+000	7.20015E-001	0.00000E+000	4	...........	1366.79
	839	16.8	7.10246E-001	1.56302E-011	0.00000E+000	7.10017E-001	0.00000E+000	4	...........	1366.79
	840	16.82	7.00223E-001	8.99125E-012	0.00000E+000	7.00020E-001	0.00000E+000	4	...........	1366.79