Folder: EchemAnalysis_MATLAB/Test_Data_Files (part 10)

File: 20250509_ZD_IF0011_IIA42_E07_PBSair_PEDOT_CV50000.DTA
EXPLAIN
TAG	CV
TITLE	LABEL	CV50000	Test Identifier
DATE	LABEL	5/9/2025	Date
TIME	LABEL	15:27:29	Time
NOTES	NOTES	1	Notes...

PSTAT	PSTAT	REF600P-43058	Potentiostat
VINIT	POTEN	0.00000E+000	T	Initial E (V)
VLIMIT1	POTEN	-9.00000E-001	F	Scan Limit 1 (V)
VLIMIT2	POTEN	6.00000E-001	F	Scan Limit 2 (V)
VFINAL	POTEN	0.00000E+000	T	Final E (V)
SCANRATE	QUANT	4.99999E+004	Scan Rate (mV/s)
STEPSIZE	QUANT	1.00000E+001	Step Size (mV)
CYCLES	IQUANT	3	Cycles (#)
IMODE	SELECTOR	1	I/E Range Mode
IRANGE	QUANT	1.00000E-002	Max Current (mA)
AREA	QUANT	1.00000E+000	Sample Area (cm^2)
EQDELAY	QUANT	5.00000E+000	Equil. Time (s)
IRCOMP	SELECTOR	0	IRComp
PFCOR	QUANT	5.00000E+001	PF Corr. (ohm)
SAMPLINGMODE	SELECTOR	2	Sampling Mode
EOC	QUANT	0.1338838	Open Circuit (V)
ELECTRODETYPE	SELECTOR	0	Electrode Type
STRIPPING	TOGGLE	F	Used for Stripping
SEQUENCER	TOGGLE	TRUE	Run as Sequence
PSTATMODEL	IQUANT	7	Pstat Model
PSTATSECTION	LABEL	REF600P-43058	Pstat Section
PSTATSERIALNO	LABEL	43058	Pstat Serial Number
CTRLMODE	IQUANT	1	Control Mode
ELECTROMETER	IQUANT	0	RE=0 or CS=1
IESTAB	IQUANT	2	I/E Stability
CASPEED	IQUANT	4	Control Amp Speed
CONVENTION	IQUANT	1	Current Convention
ICHRANGE	IQUANT	2	Ich Range
ICHRANGEMODE	TOGGLE	F	Ich Auto Range
ICHOFFSETENABLE	TOGGLE	F	Ich Offset Enable
ICHOFFSET	QUANT	0	Ich Offset (V)
ICHFILTER	IQUANT	1	Ich Filter
VCHRANGE	IQUANT	2	Vch Range
VCHRANGEMODE	TOGGLE	F	Vch Auto Range
VCHOFFSETENABLE	TOGGLE	F	Vch Offset Enable
VCHOFFSET	QUANT	0	Vch Offset (V)
VCHFILTER	IQUANT	1	Vch Filter
ACHRANGE	IQUANT	2	Ach Range
ACHOFFSETENABLE	TOGGLE	F	Ach Offset Enable
ACHOFFSET	QUANT	0	Ach Offset (V)
ACHFILTER	IQUANT	1	Ach Filter
IERANGELOWERLIMIT	IQUANT	1	I/E Range Lower Limit
IERANGEMODE	TOGGLE	F	I/E AutoRange
IERANGE	IQUANT	7	I/E Range
POSFEEDENABLE	TOGGLE	F	Positive Feedback IR Comp
POSFEEDRESISTANCE	QUANT	0	Positive Feedback Resistance (ohm)
ACHSELECT	IQUANT	4	Ach Select
SENSECABLEID	IQUANT	7	Sense Cable ID
PWRCABLEID	IQUANT	7	Power Cable ID
DCCALDATE	LABEL	5/8/2025	DC Calibration Date
ACCALDATE	LABEL	5/8/2025	AC Calibration Date
THERMOSELECT	IQUANT	1	Thermo Select
FRAMEWORKVERSION	LABEL	7.10.4	Framework Version
INSTRUMENTVERSION	LABEL	5.01	Instrument Version
COMMVERSION	LABEL	5.10	Communications Version
CPUPLDVERSION	LABEL	6.00	CPU PLD Version
CTRLPLDVERSION	LABEL	3.21	CTRL PLD Version
PSTATPLDVERSION	LABEL	0.00	PSTAT PLD Version
CURVE1	TABLE
	Pt	T	Vf	Im	Vu	Sig	Ach	IERange	Over	Temp
	#	s	V vs. Ref.	A	V	V	V	#	bits	deg C
	0	0.0002	1.33937E-001	1.06554E-008	0.00000E+000	1.33900E-001	1.19022E-003	7	...........	-327.66
	3	0.0008	1.03937E-001	-3.82762E-006	0.00000E+000	1.03900E-001	1.04022E-003	7	...........	-327.66
	6	0.0014	7.40873E-002	-6.53899E-006	0.00000E+000	7.39000E-002	1.21522E-003	7	...........	-327.66
	9	0.002	4.39873E-002	-8.69903E-006	0.00000E+000	4.39000E-002	1.11522E-003	7	...........	-327.66
	12	0.0026	1.42498E-002	-1.05580E-005	0.00000E+000	1.39000E-002	9.90224E-004	7	...........	-327.66
	15	0.0032	-1.60127E-002	-1.22318E-005	0.00000E+000	-1.61000E-002	9.40224E-004	7	...........	-327.66
	18	0.0038	-4.60502E-002	-1.37817E-005	0.00000E+000	-4.61000E-002	1.11522E-003	7	...........	-327.66
	21	0.0044	-7.60252E-002	-1.52384E-005	0.00000E+000	-7.61000E-002	1.19022E-003	7	...........	-327.66
	24	0.005	-1.05888E-001	-1.66264E-005	0.00000E+000	-1.06100E-001	1.14022E-003	7	...........	-327.66
	27	0.0056	-1.36063E-001	-1.79540E-005	0.00000E+000	-1.36100E-001	1.24022E-003	7	...........	-327.66
	30	0.0062	-1.65800E-001	-1.92400E-005	0.00000E+000	-1.66100E-001	1.11522E-003	7	...........	-327.66
	33	0.0068	-1.95963E-001	-2.04894E-005	0.00000E+000	-1.96100E-001	8.90224E-004	7	...........	-327.66
	36	0.0074	-2.25938E-001	-2.17021E-005	0.00000E+000	-2.26100E-001	9.90224E-004	7	...........	-327.66
	39	0.008	-2.55925E-001	-2.28802E-005	0.00000E+000	-2.56100E-001	1.11522E-003	7	...........	-327.66
	42	0.0086	-2.85800E-001	-2.40274E-005	0.00000E+000	-2.86100E-001	1.09022E-003	7	...........	-327.66
	45	0.0092	-3.16063E-001	-2.51530E-005	0.00000E+000	-3.16100E-001	1.09022E-003	7	...........	-327.66
	48	0.0098	-3.45838E-001	-2.62367E-005	0.00000E+000	-3.46100E-001	9.65224E-004	7	...........	-327.66
	51	0.0104	-3.75925E-001	-2.72943E-005	0.00000E+000	-3.76100E-001	1.11522E-003	7	...........	-327.66
	54	0.011	-4.05825E-001	-2.83252E-005	0.00000E+000	-4.06100E-001	1.16522E-003	7	...........	-327.66
	57	0.0116	-4.35950E-001	-2.93248E-005	0.00000E+000	-4.36100E-001	1.14022E-003	7	...........	-327.66
	60	0.0122	-4.65725E-001	-3.02890E-005	0.00000E+000	-4.66100E-001	1.11522E-003	7	...........	-327.66
	63	0.0128	-4.95888E-001	-3.12226E-005	0.00000E+000	-4.96100E-001	1.14022E-003	7	...........	-327.66
	66	0.0134	-5.25713E-001	-3.21167E-005	0.00000E+000	-5.26100E-001	1.24022E-003	7	...........	-327.66
	69	0.014	-5.55788E-001	-3.29781E-005	0.00000E+000	-5.56100E-001	1.29022E-003	7	...........	-327.66
	72	0.0146	-5.85738E-001	-3.37972E-005	0.00000E+000	-5.86100E-001	1.09022E-003	7	...........	-327.66
	75	0.0152	-6.15800E-001	-3.45668E-005	0.00000E+000	-6.16100E-001	9.40224E-004	7	...........	-327.66
	78	0.0158	-6.45650E-001	-3.52912E-005	0.00000E+000	-6.46100E-001	1.16522E-003	7	...........	-327.66
	81	0.0164	-6.75675E-001	-3.59487E-005	0.00000E+000	-6.76100E-001	1.11522E-003	7	...........	-327.66
	84	0.017	-7.05688E-001	-3.65481E-005	0.00000E+000	-7.06100E-001	1.11522E-003	7	...........	-327.66
	87	0.0176	-7.35800E-001	-3.70729E-005	0.00000E+000	-7.36100E-001	1.09022E-003	7	...........	-327.66
	90	0.0182	-7.65675E-001	-3.75012E-005	0.00000E+000	-7.66100E-001	1.09022E-003	7	...........	-327.66
	93	0.0188	-7.95700E-001	-3.78240E-005	0.00000E+000	-7.96100E-001	1.11522E-003	7	...........	-327.66
	96	0.0194	-8.25738E-001	-3.80165E-005	0.00000E+000	-8.26100E-001	1.01522E-003	7	...........	-327.66
	99	0.02	-8.55838E-001	-3.80343E-005	0.00000E+000	-8.56100E-001	1.24022E-003	7	...........	-327.66
	102	0.0206	-8.85613E-001	-3.78420E-005	0.00000E+000	-8.86100E-001	1.04022E-003	7	...........	-327.66
	105	0.0212	-8.75938E-001	-3.27061E-005	0.00000E+000	-8.76100E-001	1.06522E-003	7	...........	-327.66
	108	0.0218	-8.45838E-001	-2.65295E-005	0.00000E+000	-8.46100E-001	9.65224E-004	7	...........	-327.66
	111	0.0224	-8.15950E-001	-2.15098E-005	0.00000E+000	-8.16100E-001	9.65224E-004	7	...........	-327.66
	114	0.023	-7.85788E-001	-1.71907E-005	0.00000E+000	-7.86100E-001	1.01522E-003	7	...........	-327.66
	117	0.0236	-7.55863E-001	-1.33764E-005	0.00000E+000	-7.56100E-001	1.19022E-003	7	...........	-327.66
	120	0.0242	-7.25800E-001	-9.96295E-006	0.00000E+000	-7.26100E-001	1.04022E-003	7	...........	-327.66
	123	0.0248	-6.96000E-001	-6.87803E-006	0.00000E+000	-6.96100E-001	1.04022E-003	7	...........	-327.66
	126	0.0254	-6.65850E-001	-4.07565E-006	0.00000E+000	-6.66100E-001	1.06522E-003	7	...........	-327.66
	129	0.026	-6.35938E-001	-1.49880E-006	0.00000E+000	-6.36100E-001	1.11522E-003	7	...........	-327.66
	132	0.0266	-6.05975E-001	9.01527E-007	0.00000E+000	-6.06100E-001	1.16522E-003	7	...........	-327.66
	135	0.0272	-5.76063E-001	3.16158E-006	0.00000E+000	-5.76100E-001	1.09022E-003	7	...........	-327.66
	138	0.0278	-5.46038E-001	5.33288E-006	0.00000E+000	-5.46100E-001	9.90224E-004	7	...........	-327.66
	141	0.0284	-5.16013E-001	7.44842E-006	0.00000E+000	-5.16100E-001	1.01522E-003	7	...........	-327.66
[...]
	865	0.1732	4.79987E-001	1.05218E-005	0.00000E+000	4.80000E-001	1.11522E-003	7	...........	-327.66
	866	0.1734	4.69937E-001	9.42994E-006	0.00000E+000	4.70000E-001	9.90224E-004	7	...........	-327.66
	867	0.1736	4.59937E-001	8.38430E-006	0.00000E+000	4.60000E-001	1.19022E-003	7	...........	-327.66
	868	0.1738	4.50275E-001	7.37691E-006	0.00000E+000	4.50000E-001	1.14022E-003	7	...........	-327.66
	869	0.174	4.39987E-001	6.41603E-006	0.00000E+000	4.40000E-001	1.01522E-003	7	...........	-327.66
	870	0.1742	4.30037E-001	5.48890E-006	0.00000E+000	4.30000E-001	1.11522E-003	7	...........	-327.66
	871	0.1744	4.20050E-001	4.59753E-006	0.00000E+000	4.20000E-001	1.14022E-003	7	...........	-327.66
	872	0.1746	4.10050E-001	3.73241E-006	0.00000E+000	4.10000E-001	1.04022E-003	7	...........	-327.66
	873	0.1748	3.99937E-001	2.89930E-006	0.00000E+000	4.00000E-001	1.21522E-003	7	...........	-327.66
	874	0.175	3.90037E-001	2.09144E-006	0.00000E+000	3.90000E-001	1.09022E-003	7	...........	-327.66
	875	0.1752	3.80012E-001	1.30908E-006	0.00000E+000	3.80000E-001	1.06522E-003	7	...........	-327.66
	876	0.1754	3.70050E-001	5.52229E-007	0.00000E+000	3.70000E-001	1.09022E-003	7	...........	-327.66
	877	0.1756	3.60037E-001	-1.92622E-007	0.00000E+000	3.60000E-001	9.90224E-004	7	...........	-327.66
	878	0.1758	3.49950E-001	-9.05970E-007	0.00000E+000	3.50000E-001	9.65224E-004	7	...........	-327.66
	879	0.176	3.40100E-001	-1.60531E-006	0.00000E+000	3.40000E-001	1.06522E-003	7	...........	-327.66
	880	0.1762	3.30112E-001	-2.28391E-006	0.00000E+000	3.30000E-001	1.06522E-003	7	...........	-327.66
	881	0.1764	3.20062E-001	-2.95450E-006	0.00000E+000	3.20000E-001	1.19022E-003	7	...........	-327.66
	882	0.1766	3.10162E-001	-3.59809E-006	0.00000E+000	3.10000E-001	1.14022E-003	7	...........	-327.66
	883	0.1768	2.99987E-001	-4.23492E-006	0.00000E+000	3.00000E-001	1.06522E-003	7	...........	-327.66
	884	0.177	2.90075E-001	-4.85626E-006	0.00000E+000	2.90000E-001	1.01522E-003	7	...........	-327.66
	885	0.1772	2.80012E-001	-5.46109E-006	0.00000E+000	2.80000E-001	1.14022E-003	7	...........	-327.66
	886	0.1774	2.70150E-001	-6.05192E-006	0.00000E+000	2.70000E-001	1.09022E-003	7	...........	-327.66
	887	0.1776	2.60000E-001	-6.63875E-006	0.00000E+000	2.60000E-001	1.01522E-003	7	...........	-327.66
	888	0.1778	2.50237E-001	-7.20633E-006	0.00000E+000	2.50000E-001	1.19022E-003	7	...........	-327.66
	889	0.178	2.40125E-001	-7.76165E-006	0.00000E+000	2.40000E-001	9.40224E-004	7	...........	-327.66
	890	0.1782	2.30087E-001	-8.31423E-006	0.00000E+000	2.30000E-001	1.16522E-003	7	...........	-327.66
	891	0.1784	2.20037E-001	-8.85280E-006	0.00000E+000	2.20000E-001	1.01522E-003	7	...........	-327.66
	892	0.1786	2.10100E-001	-9.38538E-006	0.00000E+000	2.10000E-001	1.09022E-003	7	...........	-327.66
	893	0.1788	2.00125E-001	-9.90770E-006	0.00000E+000	2.00000E-001	9.65224E-004	7	...........	-327.66
	894	0.179	1.90137E-001	-1.04163E-005	0.00000E+000	1.90000E-001	1.09022E-003	7	...........	-327.66
	895	0.1792	1.80087E-001	-1.09233E-005	0.00000E+000	1.80000E-001	1.11522E-003	7	...........	-327.66
	896	0.1794	1.70162E-001	-1.14167E-005	0.00000E+000	1.70000E-001	1.19022E-003	7	...........	-327.66
	897	0.1796	1.60200E-001	-1.19092E-005	0.00000E+000	1.60000E-001	1.09022E-003	7	...........	-327.66
	898	0.1798	1.50175E-001	-1.23955E-005	0.00000E+000	1.50000E-001	1.24022E-003	7	...........	-327.66
	899	0.18	1.40212E-001	-1.28714E-005	0.00000E+000	1.40000E-001	1.14022E-003	7	...........	-327.66
	900	0.1802	1.30200E-001	-1.33412E-005	0.00000E+000	1.30000E-001	1.09022E-003	7	...........	-327.66

File: 20250509_ZG_IF0011_IIA42_E08_PBSair_PEDOT_CV50.DTA
EXPLAIN
TAG	CV
TITLE	LABEL	CV50	Test Identifier
DATE	LABEL	5/9/2025	Date
TIME	LABEL	15:33:14	Time
NOTES	NOTES	1	Notes...

PSTAT	PSTAT	REF600P-43058	Potentiostat
VINIT	POTEN	0.00000E+000	T	Initial E (V)
VLIMIT1	POTEN	-9.00000E-001	F	Scan Limit 1 (V)
VLIMIT2	POTEN	6.00000E-001	F	Scan Limit 2 (V)
VFINAL	POTEN	0.00000E+000	T	Final E (V)
SCANRATE	QUANT	4.99999E+001	Scan Rate (mV/s)
STEPSIZE	QUANT	1.00000E+001	Step Size (mV)
CYCLES	IQUANT	3	Cycles (#)
IMODE	SELECTOR	1	I/E Range Mode
IRANGE	QUANT	1.00000E-003	Max Current (mA)
AREA	QUANT	1.00000E+000	Sample Area (cm^2)
EQDELAY	QUANT	5.00000E+000	Equil. Time (s)
IRCOMP	SELECTOR	0	IRComp
PFCOR	QUANT	5.00000E+001	PF Corr. (ohm)
SAMPLINGMODE	SELECTOR	2	Sampling Mode
EOC	QUANT	0.1530634	Open Circuit (V)
ELECTRODETYPE	SELECTOR	0	Electrode Type
STRIPPING	TOGGLE	F	Used for Stripping
SEQUENCER	TOGGLE	TRUE	Run as Sequence
PSTATMODEL	IQUANT	7	Pstat Model
PSTATSECTION	LABEL	REF600P-43058	Pstat Section
PSTATSERIALNO	LABEL	43058	Pstat Serial Number
CTRLMODE	IQUANT	1	Control Mode
ELECTROMETER	IQUANT	0	RE=0 or CS=1
IESTAB	IQUANT	2	I/E Stability
CASPEED	IQUANT	4	Control Amp Speed
CONVENTION	IQUANT	1	Current Convention
ICHRANGE	IQUANT	2	Ich Range
ICHRANGEMODE	TOGGLE	F	Ich Auto Range
ICHOFFSETENABLE	TOGGLE	F	Ich Offset Enable
ICHOFFSET	QUANT	0	Ich Offset (V)
ICHFILTER	IQUANT	2	Ich Filter
VCHRANGE	IQUANT	2	Vch Range
VCHRANGEMODE	TOGGLE	F	Vch Auto Range
VCHOFFSETENABLE	TOGGLE	F	Vch Offset Enable
VCHOFFSET	QUANT	0	Vch Offset (V)
VCHFILTER	IQUANT	2	Vch Filter
ACHRANGE	IQUANT	2	Ach Range
ACHOFFSETENABLE	TOGGLE	F	Ach Offset Enable
ACHOFFSET	QUANT	0	Ach Offset (V)
ACHFILTER	IQUANT	1	Ach Filter
IERANGELOWERLIMIT	IQUANT	1	I/E Range Lower Limit
IERANGEMODE	TOGGLE	F	I/E AutoRange
IERANGE	IQUANT	6	I/E Range
POSFEEDENABLE	TOGGLE	F	Positive Feedback IR Comp
POSFEEDRESISTANCE	QUANT	0	Positive Feedback Resistance (ohm)
ACHSELECT	IQUANT	4	Ach Select
SENSECABLEID	IQUANT	7	Sense Cable ID
PWRCABLEID	IQUANT	7	Power Cable ID
DCCALDATE	LABEL	5/8/2025	DC Calibration Date
ACCALDATE	LABEL	5/8/2025	AC Calibration Date
THERMOSELECT	IQUANT	1	Thermo Select
FRAMEWORKVERSION	LABEL	7.10.4	Framework Version
INSTRUMENTVERSION	LABEL	5.01	Instrument Version
COMMVERSION	LABEL	5.10	Communications Version
CPUPLDVERSION	LABEL	6.00	CPU PLD Version
CTRLPLDVERSION	LABEL	3.21	CTRL PLD Version
PSTATPLDVERSION	LABEL	0.00	PSTAT PLD Version
CURVE1	TABLE
	Pt	T	Vf	Im	Vu	Sig	Ach	IERange	Over	Temp
	#	s	V vs. Ref.	A	V	V	V	#	bits	deg C
	0	0.2	1.53120E-001	4.80852E-010	0.00000E+000	1.53050E-001	1.43787E-003	6	...........	-327.66
	3	0.8	1.23125E-001	-3.12537E-008	0.00000E+000	1.23050E-001	1.44254E-003	6	...........	-327.66
	6	1.4	9.31081E-002	-3.20491E-008	0.00000E+000	9.30500E-002	1.43406E-003	6	...........	-327.66
	9	2	6.31787E-002	-3.28918E-008	0.00000E+000	6.30500E-002	1.45581E-003	6	...........	-327.66
	12	2.6	3.31081E-002	-3.38975E-008	0.00000E+000	3.30500E-002	1.44751E-003	6	...........	-327.66
	15	3.2	3.11694E-003	-3.49242E-008	0.00000E+000	3.04998E-003	1.43320E-003	6	...........	-327.66
	18	3.8	-2.69296E-002	-3.61343E-008	0.00000E+000	-2.69500E-002	1.44349E-003	6	...........	-327.66
	21	4.4	-5.68288E-002	-3.74766E-008	0.00000E+000	-5.69500E-002	1.44334E-003	6	...........	-327.66
	24	5	-8.69117E-002	-3.88882E-008	0.00000E+000	-8.69500E-002	1.43467E-003	6	...........	-327.66
	27	5.6	-1.16857E-001	-4.04902E-008	0.00000E+000	-1.16950E-001	1.43889E-003	6	...........	-327.66
	30	6.2	-1.46919E-001	-4.22888E-008	0.00000E+000	-1.46950E-001	1.43362E-003	6	...........	-327.66
	33	6.8	-1.76828E-001	-4.42666E-008	0.00000E+000	-1.76950E-001	1.43846E-003	6	...........	-327.66
	36	7.4	-2.06892E-001	-4.65201E-008	0.00000E+000	-2.06950E-001	1.44252E-003	6	...........	-327.66
	39	8	-2.36862E-001	-4.88870E-008	0.00000E+000	-2.36950E-001	1.43829E-003	6	...........	-327.66
	42	8.6	-2.66840E-001	-5.13353E-008	0.00000E+000	-2.66950E-001	1.44261E-003	6	...........	-327.66
	45	9.2	-2.96808E-001	-5.39147E-008	0.00000E+000	-2.96950E-001	1.44934E-003	6	...........	-327.66
	48	9.8	-3.26908E-001	-5.66493E-008	0.00000E+000	-3.26950E-001	1.44493E-003	6	...........	-327.66
	51	10.4	-3.56907E-001	-5.94643E-008	0.00000E+000	-3.56950E-001	1.44289E-003	6	...........	-327.66
	54	11	-3.86876E-001	-6.22416E-008	0.00000E+000	-3.86950E-001	1.43242E-003	6	...........	-327.66
	57	11.6	-4.16781E-001	-6.51311E-008	0.00000E+000	-4.16950E-001	1.45126E-003	6	...........	-327.66
	60	12.2	-4.46725E-001	-6.78846E-008	0.00000E+000	-4.46950E-001	1.43706E-003	6	...........	-327.66
	63	12.8	-4.76754E-001	-7.08656E-008	0.00000E+000	-4.76950E-001	1.44728E-003	6	...........	-327.66
	66	13.4	-5.06831E-001	-7.40329E-008	0.00000E+000	-5.06950E-001	1.44606E-003	6	...........	-327.66
	69	14	-5.36780E-001	-7.72811E-008	0.00000E+000	-5.36950E-001	1.45528E-003	6	...........	-327.66
	72	14.6	-5.66859E-001	-8.05888E-008	0.00000E+000	-5.66950E-001	1.43881E-003	6	...........	-327.66
	75	15.2	-5.96831E-001	-8.38210E-008	0.00000E+000	-5.96950E-001	1.44836E-003	6	...........	-327.66
	78	15.8	-6.26783E-001	-8.66548E-008	0.00000E+000	-6.26950E-001	1.44786E-003	6	...........	-327.66
	81	16.4	-6.56732E-001	-8.89248E-008	0.00000E+000	-6.56950E-001	1.44541E-003	6	...........	-327.66
	84	17	-6.86818E-001	-8.99174E-008	0.00000E+000	-6.86950E-001	1.45446E-003	6	...........	-327.66
	87	17.6	-7.16820E-001	-8.76623E-008	0.00000E+000	-7.16950E-001	1.44221E-003	6	...........	-327.66
	90	18.2	-7.46827E-001	-8.04415E-008	0.00000E+000	-7.46950E-001	1.43937E-003	6	...........	-327.66
	93	18.8	-7.76788E-001	-6.93391E-008	0.00000E+000	-7.76950E-001	1.44014E-003	6	...........	-327.66
	96	19.4	-8.06810E-001	-5.67852E-008	0.00000E+000	-8.06950E-001	1.44579E-003	6	...........	-327.66
	99	20	-8.36771E-001	-4.55316E-008	0.00000E+000	-8.36950E-001	1.44599E-003	6	...........	-327.66
	102	20.6	-8.66832E-001	-3.69887E-008	0.00000E+000	-8.66950E-001	1.43667E-003	6	...........	-327.66
	105	21.2	-8.96759E-001	-3.10594E-008	0.00000E+000	-8.96950E-001	1.44586E-003	6	...........	-327.66
	108	21.8	-8.66868E-001	-2.12645E-008	0.00000E+000	-8.66950E-001	1.43709E-003	6	...........	-327.66
	111	22.4	-8.36869E-001	-1.61781E-008	0.00000E+000	-8.36950E-001	1.43467E-003	6	...........	-327.66
	114	23	-8.06828E-001	-1.06410E-008	0.00000E+000	-8.06950E-001	1.44393E-003	6	...........	-327.66
	117	23.6	-7.76827E-001	-3.03845E-009	0.00000E+000	-7.76950E-001	1.45136E-003	6	...........	-327.66
	120	24.2	-7.46872E-001	7.74563E-009	0.00000E+000	-7.46950E-001	1.44094E-003	6	...........	-327.66
	123	24.8	-7.16887E-001	1.97575E-008	0.00000E+000	-7.16950E-001	1.43856E-003	6	...........	-327.66
	126	25.4	-6.86866E-001	2.66134E-008	0.00000E+000	-6.86950E-001	1.44704E-003	6	...........	-327.66
	129	26	-6.56805E-001	2.77054E-008	0.00000E+000	-6.56950E-001	1.44364E-003	6	...........	-327.66
	132	26.6	-6.26836E-001	2.83005E-008	0.00000E+000	-6.26950E-001	1.45046E-003	6	...........	-327.66
	135	27.2	-5.96922E-001	2.93158E-008	0.00000E+000	-5.96950E-001	1.44291E-003	6	...........	-327.66
	138	27.8	-5.66877E-001	3.05624E-008	0.00000E+000	-5.66950E-001	1.44052E-003	6	...........	-327.66
	141	28.4	-5.36849E-001	3.18960E-008	0.00000E+000	-5.36950E-001	1.45435E-003	6	...........	-327.66
	144	29	-5.06908E-001	3.34165E-008	0.00000E+000	-5.06950E-001	1.45531E-003	6	...........	-327.66
[...]
	864	173	5.09980E-001	-2.86245E-008	0.00000E+000	5.10000E-001	1.47142E-003	6	...........	-327.66
	865	173.2	5.00012E-001	-2.94655E-008	0.00000E+000	5.00000E-001	1.47480E-003	6	...........	-327.66
	866	173.4	4.89981E-001	-3.01737E-008	0.00000E+000	4.90000E-001	1.46590E-003	6	...........	-327.66
	867	173.6	4.79969E-001	-3.08208E-008	0.00000E+000	4.80000E-001	1.47080E-003	6	...........	-327.66
	868	173.8	4.69982E-001	-3.13632E-008	0.00000E+000	4.70000E-001	1.46600E-003	6	...........	-327.66
	869	174	4.59998E-001	-3.19061E-008	0.00000E+000	4.60000E-001	1.47305E-003	6	...........	-327.66
	870	174.2	4.50067E-001	-3.22783E-008	0.00000E+000	4.50000E-001	1.47520E-003	6	...........	-327.66
	871	174.4	4.39949E-001	-3.27357E-008	0.00000E+000	4.40000E-001	1.46437E-003	6	...........	-327.66
	872	174.6	4.29998E-001	-3.30779E-008	0.00000E+000	4.30000E-001	1.47709E-003	6	...........	-327.66
	873	174.8	4.20048E-001	-3.34128E-008	0.00000E+000	4.20000E-001	1.46558E-003	6	...........	-327.66
	874	175	4.09988E-001	-3.37085E-008	0.00000E+000	4.10000E-001	1.46091E-003	6	...........	-327.66
	875	175.2	3.99979E-001	-3.40658E-008	0.00000E+000	4.00000E-001	1.47474E-003	6	...........	-327.66
	876	175.4	3.89996E-001	-3.43489E-008	0.00000E+000	3.90000E-001	1.46620E-003	6	...........	-327.66
	877	175.6	3.80002E-001	-3.46365E-008	0.00000E+000	3.80000E-001	1.47252E-003	6	...........	-327.66
	878	175.8	3.70038E-001	-3.47997E-008	0.00000E+000	3.70000E-001	1.46988E-003	6	...........	-327.66
	879	176	3.59966E-001	-3.51047E-008	0.00000E+000	3.60000E-001	1.46860E-003	6	...........	-327.66
	880	176.2	3.50027E-001	-3.53447E-008	0.00000E+000	3.50000E-001	1.47005E-003	6	...........	-327.66
	881	176.4	3.40016E-001	-3.55797E-008	0.00000E+000	3.40000E-001	1.47764E-003	6	...........	-327.66
	882	176.6	3.30026E-001	-3.57283E-008	0.00000E+000	3.30000E-001	1.45691E-003	6	...........	-327.66
	883	176.8	3.19993E-001	-3.60324E-008	0.00000E+000	3.20000E-001	1.45925E-003	6	...........	-327.66
	884	177	3.09997E-001	-3.62336E-008	0.00000E+000	3.10000E-001	1.46223E-003	6	...........	-327.66
	885	177.2	3.00001E-001	-3.64884E-008	0.00000E+000	3.00000E-001	1.47113E-003	6	...........	-327.66
	886	177.4	2.90015E-001	-3.65840E-008	0.00000E+000	2.90000E-001	1.47153E-003	6	...........	-327.66
	887	177.6	2.79987E-001	-3.68531E-008	0.00000E+000	2.80000E-001	1.47005E-003	6	...........	-327.66
	888	177.8	2.70104E-001	-3.70257E-008	0.00000E+000	2.70000E-001	1.47007E-003	6	...........	-327.66
	889	178	2.60008E-001	-3.72811E-008	0.00000E+000	2.60000E-001	1.47232E-003	6	...........	-327.66
	890	178.2	2.50054E-001	-3.73108E-008	0.00000E+000	2.50000E-001	1.47390E-003	6	...........	-327.66
	891	178.4	2.40009E-001	-3.75492E-008	0.00000E+000	2.40000E-001	1.47252E-003	6	...........	-327.66
	892	178.6	2.30002E-001	-3.77202E-008	0.00000E+000	2.30000E-001	1.46028E-003	6	...........	-327.66
	893	178.8	2.20004E-001	-3.79464E-008	0.00000E+000	2.20000E-001	1.46820E-003	6	...........	-327.66
	894	179	2.10005E-001	-3.80359E-008	0.00000E+000	2.10000E-001	1.47140E-003	6	...........	-327.66
	895	179.2	2.00002E-001	-3.82077E-008	0.00000E+000	2.00000E-001	1.47799E-003	6	...........	-327.66
	896	179.4	1.90055E-001	-3.83758E-008	0.00000E+000	1.90000E-001	1.47330E-003	6	...........	-327.66
	897	179.6	1.80018E-001	-3.86106E-008	0.00000E+000	1.80000E-001	1.47023E-003	6	...........	-327.66
	898	179.8	1.70102E-001	-3.87059E-008	0.00000E+000	1.70000E-001	1.48524E-003	6	...........	-327.66
	899	180	1.60012E-001	-3.89171E-008	0.00000E+000	1.60000E-001	1.46040E-003	6	...........	-327.66
	900	180.2	1.50028E-001	-3.90578E-008	0.00000E+000	1.50000E-001	1.46635E-003	6	...........	-327.66